"value","trial_type","trial_index","time_elapsed","internal_node_id","subject","browser_info","participant_number","rt","responses","view_history","presentation_start_time","id","text","response","keypresses","answer","correct","study","experimenter_rt"
"","call-function","0","4","0.0-0.0","fybd97xfstv527g","{""user_agent"":""Mozilla/5.0 (Macintosh; Intel Mac OS X 10_14_4) AppleWebKit/537.36 (KHTML, like Gecko) Chrome/74.0.3729.131 Safari/537.36"",""on_chrome"":true,""on_mobile"":false,""language"":""en-US"",""screen_resolution"":[1440,900],""platform"":""MacIntel"",""timezone"":""Europe/Berlin""}","1","","","","","","","","","","","",""
"","survey-text","1","86474","0.0-1.0","fybd97xfstv527g","{""user_agent"":""Mozilla/5.0 (Macintosh; Intel Mac OS X 10_14_4) AppleWebKit/537.36 (KHTML, like Gecko) Chrome/74.0.3729.131 Safari/537.36"",""on_chrome"":true,""on_mobile"":false,""language"":""en-US"",""screen_resolution"":[1440,900],""platform"":""MacIntel"",""timezone"":""Europe/Berlin""}","1","86469","{""Q0"":""1""}","","","","","","","","","",""
"","instructions","2","131007","0.0-2.0","fybd97xfstv527g","{""user_agent"":""Mozilla/5.0 (Macintosh; Intel Mac OS X 10_14_4) AppleWebKit/537.36 (KHTML, like Gecko) Chrome/74.0.3729.131 Safari/537.36"",""on_chrome"":true,""on_mobile"":false,""language"":""en-US"",""screen_resolution"":[1440,900],""platform"":""MacIntel"",""timezone"":""Europe/Berlin""}","1","44531","","[{""page_index"":0,""viewing_time"":44531}]","","","","","","","","",""
"","call-function","3","131008","0.0-3.0","fybd97xfstv527g","{""user_agent"":""Mozilla/5.0 (Macintosh; Intel Mac OS X 10_14_4) AppleWebKit/537.36 (KHTML, like Gecko) Chrome/74.0.3729.131 Safari/537.36"",""on_chrome"":true,""on_mobile"":false,""language"":""en-US"",""screen_resolution"":[1440,900],""platform"":""MacIntel"",""timezone"":""Europe/Berlin""}","1","","","","","","","","","","","",""
"","html-voicekey-response","4","135800","0.0-4.0-0.0","fybd97xfstv527g","{""user_agent"":""Mozilla/5.0 (Macintosh; Intel Mac OS X 10_14_4) AppleWebKit/537.36 (KHTML, like Gecko) Chrome/74.0.3729.131 Safari/537.36"",""on_chrome"":true,""on_mobile"":false,""language"":""en-US"",""screen_resolution"":[1440,900],""platform"":""MacIntel"",""timezone"":""Europe/Berlin""}","1","2799.1450000061654","","","1557390313868","1","","Magdeburg","[]","Magdeburg","true","true","4187.415000022156"
"","html-voicekey-response","5","145966","0.0-4.1-0.1","fybd97xfstv527g","{""user_agent"":""Mozilla/5.0 (Macintosh; Intel Mac OS X 10_14_4) AppleWebKit/537.36 (KHTML, like Gecko) Chrome/74.0.3729.131 Safari/537.36"",""on_chrome"":true,""on_mobile"":false,""language"":""en-US"",""screen_resolution"":[1440,900],""platform"":""MacIntel"",""timezone"":""Europe/Berlin""}","1","8251.644999991031","","","1557390318662","1","","Magdeburg","[]","Magdeburg","true","false","9560.52999998792"
"","html-voicekey-response","6","149893","0.0-4.2-0.2","fybd97xfstv527g","{""user_agent"":""Mozilla/5.0 (Macintosh; Intel Mac OS X 10_14_4) AppleWebKit/537.36 (KHTML, like Gecko) Chrome/74.0.3729.131 Safari/537.36"",""on_chrome"":true,""on_mobile"":false,""language"":""en-US"",""screen_resolution"":[1440,900],""platform"":""MacIntel"",""timezone"":""Europe/Berlin""}","1","1899.3299999945798","","","1557390328826","2","","Berlin","[]","Berlin","true","true","3324.625000008382"
"","html-voicekey-response","7","156026","0.0-4.3-0.3","fybd97xfstv527g","{""user_agent"":""Mozilla/5.0 (Macintosh; Intel Mac OS X 10_14_4) AppleWebKit/537.36 (KHTML, like Gecko) Chrome/74.0.3729.131 Safari/537.36"",""on_chrome"":true,""on_mobile"":false,""language"":""en-US"",""screen_resolution"":[1440,900],""platform"":""MacIntel"",""timezone"":""Europe/Berlin""}","1","4638.959999990975","","","1557390332752","2","","Berlin","[]","Berlin","true","false","5530.709999991814"
"","html-voicekey-response","8","162300","0.0-4.4-0.4","fybd97xfstv527g","{""user_agent"":""Mozilla/5.0 (Macintosh; Intel Mac OS X 10_14_4) AppleWebKit/537.36 (KHTML, like Gecko) Chrome/74.0.3729.131 Safari/537.36"",""on_chrome"":true,""on_mobile"":false,""language"":""en-US"",""screen_resolution"":[1440,900],""platform"":""MacIntel"",""timezone"":""Europe/Berlin""}","1","3462.6650000080467","","","1557390338885","3","","Ingolstadt","[]","Ingolstadt","true","true","5672.079999989364"
"","html-voicekey-response","9","167368","0.0-4.5-0.5","fybd97xfstv527g","{""user_agent"":""Mozilla/5.0 (Macintosh; Intel Mac OS X 10_14_4) AppleWebKit/537.36 (KHTML, like Gecko) Chrome/74.0.3729.131 Safari/537.36"",""on_chrome"":true,""on_mobile"":false,""language"":""en-US"",""screen_resolution"":[1440,900],""platform"":""MacIntel"",""timezone"":""Europe/Berlin""}","1","2522.514999998594","","","1557390345159","4","","Würzburg","[]","Würzburg","true","true","4464.905000000726"
"","html-voicekey-response","10","182699","0.0-4.6-0.6","fybd97xfstv527g","{""user_agent"":""Mozilla/5.0 (Macintosh; Intel Mac OS X 10_14_4) AppleWebKit/537.36 (KHTML, like Gecko) Chrome/74.0.3729.131 Safari/537.36"",""on_chrome"":true,""on_mobile"":false,""language"":""en-US"",""screen_resolution"":[1440,900],""platform"":""MacIntel"",""timezone"":""Europe/Berlin""}","1","9997.245000014873","","","1557390350227","3","","","[]","Ingolstadt","false","false","11329.085000004852"
"","html-voicekey-response","11","187233","0.0-4.7-0.7","fybd97xfstv527g","{""user_agent"":""Mozilla/5.0 (Macintosh; Intel Mac OS X 10_14_4) AppleWebKit/537.36 (KHTML, like Gecko) Chrome/74.0.3729.131 Safari/537.36"",""on_chrome"":true,""on_mobile"":false,""language"":""en-US"",""screen_resolution"":[1440,900],""platform"":""MacIntel"",""timezone"":""Europe/Berlin""}","1","2739.049999983609","","","1557390365558","4","","Würzburg","[]","Würzburg","true","false","3931.385000003502"
"","html-voicekey-response","12","191566","0.0-4.8-0.8","fybd97xfstv527g","{""user_agent"":""Mozilla/5.0 (Macintosh; Intel Mac OS X 10_14_4) AppleWebKit/537.36 (KHTML, like Gecko) Chrome/74.0.3729.131 Safari/537.36"",""on_chrome"":true,""on_mobile"":false,""language"":""en-US"",""screen_resolution"":[1440,900],""platform"":""MacIntel"",""timezone"":""Europe/Berlin""}","1","2455.4300000107382","","","1557390370092","1","","Magdeburg","[]","Magdeburg","true","false","3731.25500002061"
"","html-voicekey-response","13","195846","0.0-4.9-0.9","fybd97xfstv527g","{""user_agent"":""Mozilla/5.0 (Macintosh; Intel Mac OS X 10_14_4) AppleWebKit/537.36 (KHTML, like Gecko) Chrome/74.0.3729.131 Safari/537.36"",""on_chrome"":true,""on_mobile"":false,""language"":""en-US"",""screen_resolution"":[1440,900],""platform"":""MacIntel"",""timezone"":""Europe/Berlin""}","1","2218.10500001614","","","1557390374426","2","","Berlin","[]","Berlin","true","false","3676.999999996042"
"","html-voicekey-response","14","200662","0.0-4.10-0.10","fybd97xfstv527g","{""user_agent"":""Mozilla/5.0 (Macintosh; Intel Mac OS X 10_14_4) AppleWebKit/537.36 (KHTML, like Gecko) Chrome/74.0.3729.131 Safari/537.36"",""on_chrome"":true,""on_mobile"":false,""language"":""en-US"",""screen_resolution"":[1440,900],""platform"":""MacIntel"",""timezone"":""Europe/Berlin""}","1","2205.7650000004564","","","1557390378705","5","","Aachen","[]","Aachen","true","true","4213.910000020405"
"","html-voicekey-response","15","205220","0.0-4.11-0.11","fybd97xfstv527g","{""user_agent"":""Mozilla/5.0 (Macintosh; Intel Mac OS X 10_14_4) AppleWebKit/537.36 (KHTML, like Gecko) Chrome/74.0.3729.131 Safari/537.36"",""on_chrome"":true,""on_mobile"":false,""language"":""en-US"",""screen_resolution"":[1440,900],""platform"":""MacIntel"",""timezone"":""Europe/Berlin""}","1","2130.1749999782537","","","1557390383521","6","","Dresden","[]","Dresden","true","true","3956.030000001192"
"","html-voicekey-response","16","210004","0.0-4.12-0.12","fybd97xfstv527g","{""user_agent"":""Mozilla/5.0 (Macintosh; Intel Mac OS X 10_14_4) AppleWebKit/537.36 (KHTML, like Gecko) Chrome/74.0.3729.131 Safari/537.36"",""on_chrome"":true,""on_mobile"":false,""language"":""en-US"",""screen_resolution"":[1440,900],""platform"":""MacIntel"",""timezone"":""Europe/Berlin""}","1","2856.930000017956","","","1557390388078","5","","Aachen","[]","Aachen","true","false","4182.195000001229"
"","html-voicekey-response","17","214573","0.0-4.13-0.13","fybd97xfstv527g","{""user_agent"":""Mozilla/5.0 (Macintosh; Intel Mac OS X 10_14_4) AppleWebKit/537.36 (KHTML, like Gecko) Chrome/74.0.3729.131 Safari/537.36"",""on_chrome"":true,""on_mobile"":false,""language"":""en-US"",""screen_resolution"":[1440,900],""platform"":""MacIntel"",""timezone"":""Europe/Berlin""}","1","1772.479999994021","","","1557390392863","6","","Dresden","[]","Dresden","true","false","3964.5700000110082"
"","html-voicekey-response","18","218945","0.0-4.14-0.14","fybd97xfstv527g","{""user_agent"":""Mozilla/5.0 (Macintosh; Intel Mac OS X 10_14_4) AppleWebKit/537.36 (KHTML, like Gecko) Chrome/74.0.3729.131 Safari/537.36"",""on_chrome"":true,""on_mobile"":false,""language"":""en-US"",""screen_resolution"":[1440,900],""platform"":""MacIntel"",""timezone"":""Europe/Berlin""}","1","2109.4749999845867","","","1557390397433","7","","Erfurt","[]","Erfurt","true","true","3769.2950000055134"
"","html-voicekey-response","19","223478","0.0-4.15-0.15","fybd97xfstv527g","{""user_agent"":""Mozilla/5.0 (Macintosh; Intel Mac OS X 10_14_4) AppleWebKit/537.36 (KHTML, like Gecko) Chrome/74.0.3729.131 Safari/537.36"",""on_chrome"":true,""on_mobile"":false,""language"":""en-US"",""screen_resolution"":[1440,900],""platform"":""MacIntel"",""timezone"":""Europe/Berlin""}","1","2520.8650000075345","","","1557390401805","3","","Ingolstadt","[]","Ingolstadt","true","false","3930.6050000013784"
"","html-voicekey-response","20","227506","0.0-4.16-0.16","fybd97xfstv527g","{""user_agent"":""Mozilla/5.0 (Macintosh; Intel Mac OS X 10_14_4) AppleWebKit/537.36 (KHTML, like Gecko) Chrome/74.0.3729.131 Safari/537.36"",""on_chrome"":true,""on_mobile"":false,""language"":""en-US"",""screen_resolution"":[1440,900],""platform"":""MacIntel"",""timezone"":""Europe/Berlin""}","1","2249.6800000170247","","","1557390406338","7","","Erfurt","[]","Erfurt","true","false","3424.615000025369"
"","html-voicekey-response","21","231607","0.0-4.17-0.17","fybd97xfstv527g","{""user_agent"":""Mozilla/5.0 (Macintosh; Intel Mac OS X 10_14_4) AppleWebKit/537.36 (KHTML, like Gecko) Chrome/74.0.3729.131 Safari/537.36"",""on_chrome"":true,""on_mobile"":false,""language"":""en-US"",""screen_resolution"":[1440,900],""platform"":""MacIntel"",""timezone"":""Europe/Berlin""}","1","2238.2149999992457","","","1557390410366","8","","Gotha","[]","Gotha","true","true","3498.2550000131596"
"","html-voicekey-response","22","235392","0.0-4.18-0.18","fybd97xfstv527g","{""user_agent"":""Mozilla/5.0 (Macintosh; Intel Mac OS X 10_14_4) AppleWebKit/537.36 (KHTML, like Gecko) Chrome/74.0.3729.131 Safari/537.36"",""on_chrome"":true,""on_mobile"":false,""language"":""en-US"",""screen_resolution"":[1440,900],""platform"":""MacIntel"",""timezone"":""Europe/Berlin""}","1","1987.3400000013412","","","1557390414466","9","","München","[]","München","true","true","3181.125000002794"
"","html-voicekey-response","23","238965","0.0-4.19-0.19","fybd97xfstv527g","{""user_agent"":""Mozilla/5.0 (Macintosh; Intel Mac OS X 10_14_4) AppleWebKit/537.36 (KHTML, like Gecko) Chrome/74.0.3729.131 Safari/537.36"",""on_chrome"":true,""on_mobile"":false,""language"":""en-US"",""screen_resolution"":[1440,900],""platform"":""MacIntel"",""timezone"":""Europe/Berlin""}","1","2043.3449999926147","","","1557390418252","8","","Gotha","[]","Gotha","true","false","2970.115000003716"
"","html-voicekey-response","24","242731","0.0-4.20-0.20","fybd97xfstv527g","{""user_agent"":""Mozilla/5.0 (Macintosh; Intel Mac OS X 10_14_4) AppleWebKit/537.36 (KHTML, like Gecko) Chrome/74.0.3729.131 Safari/537.36"",""on_chrome"":true,""on_mobile"":false,""language"":""en-US"",""screen_resolution"":[1440,900],""platform"":""MacIntel"",""timezone"":""Europe/Berlin""}","1","1937.6049999935553","","","1557390421824","9","","München","[]","München","true","false","3163.4699999995064"
"","html-voicekey-response","25","248048","0.0-4.21-0.21","fybd97xfstv527g","{""user_agent"":""Mozilla/5.0 (Macintosh; Intel Mac OS X 10_14_4) AppleWebKit/537.36 (KHTML, like Gecko) Chrome/74.0.3729.131 Safari/537.36"",""on_chrome"":true,""on_mobile"":false,""language"":""en-US"",""screen_resolution"":[1440,900],""platform"":""MacIntel"",""timezone"":""Europe/Berlin""}","1","3156.070000006212","","","1557390425590","4","","Würzburg","[]","Würzburg","true","false","4714.3100000103"
"","html-voicekey-response","26","252223","0.0-4.22-0.22","fybd97xfstv527g","{""user_agent"":""Mozilla/5.0 (Macintosh; Intel Mac OS X 10_14_4) AppleWebKit/537.36 (KHTML, like Gecko) Chrome/74.0.3729.131 Safari/537.36"",""on_chrome"":true,""on_mobile"":false,""language"":""en-US"",""screen_resolution"":[1440,900],""platform"":""MacIntel"",""timezone"":""Europe/Berlin""}","1","1929.740000001248","","","1557390430907","10","","Heidelberg","[]","Heidelberg","true","true","3572.420000011334"
"","html-voicekey-response","27","255856","0.0-4.23-0.23","fybd97xfstv527g","{""user_agent"":""Mozilla/5.0 (Macintosh; Intel Mac OS X 10_14_4) AppleWebKit/537.36 (KHTML, like Gecko) Chrome/74.0.3729.131 Safari/537.36"",""on_chrome"":true,""on_mobile"":false,""language"":""en-US"",""screen_resolution"":[1440,900],""platform"":""MacIntel"",""timezone"":""Europe/Berlin""}","1","1737.0150000004564","","","1557390435083","5","","Aachen","[]","Aachen","true","false","3029.3599999859"
"","html-voicekey-response","28","259722","0.0-4.24-0.24","fybd97xfstv527g","{""user_agent"":""Mozilla/5.0 (Macintosh; Intel Mac OS X 10_14_4) AppleWebKit/537.36 (KHTML, like Gecko) Chrome/74.0.3729.131 Safari/537.36"",""on_chrome"":true,""on_mobile"":false,""language"":""en-US"",""screen_resolution"":[1440,900],""platform"":""MacIntel"",""timezone"":""Europe/Berlin""}","1","1684.9749999908731","","","1557390438718","10","","Heidelberg","[]","Heidelberg","true","false","3260.4749999882188"
"","html-voicekey-response","29","263663","0.0-4.25-0.25","fybd97xfstv527g","{""user_agent"":""Mozilla/5.0 (Macintosh; Intel Mac OS X 10_14_4) AppleWebKit/537.36 (KHTML, like Gecko) Chrome/74.0.3729.131 Safari/537.36"",""on_chrome"":true,""on_mobile"":false,""language"":""en-US"",""screen_resolution"":[1440,900],""platform"":""MacIntel"",""timezone"":""Europe/Berlin""}","1","1644.9850000006613","","","1557390442582","6","","Dresden","[]","Dresden","true","false","3336.7049999942537"
"","html-voicekey-response","30","267829","0.0-4.26-0.26","fybd97xfstv527g","{""user_agent"":""Mozilla/5.0 (Macintosh; Intel Mac OS X 10_14_4) AppleWebKit/537.36 (KHTML, like Gecko) Chrome/74.0.3729.131 Safari/537.36"",""on_chrome"":true,""on_mobile"":false,""language"":""en-US"",""screen_resolution"":[1440,900],""platform"":""MacIntel"",""timezone"":""Europe/Berlin""}","1","1955.400000015134","","","1557390446522","11","","Alfeld","[]","Alfeld","true","true","3563.3700000180397"
"","html-voicekey-response","31","271570","0.0-4.27-0.27","fybd97xfstv527g","{""user_agent"":""Mozilla/5.0 (Macintosh; Intel Mac OS X 10_14_4) AppleWebKit/537.36 (KHTML, like Gecko) Chrome/74.0.3729.131 Safari/537.36"",""on_chrome"":true,""on_mobile"":false,""language"":""en-US"",""screen_resolution"":[1440,900],""platform"":""MacIntel"",""timezone"":""Europe/Berlin""}","1","1889.1399999937044","","","1557390450689","12","","Dessau","[]","Dessau","true","true","3138.364999991609"
"","html-voicekey-response","32","275520","0.0-4.28-0.28","fybd97xfstv527g","{""user_agent"":""Mozilla/5.0 (Macintosh; Intel Mac OS X 10_14_4) AppleWebKit/537.36 (KHTML, like Gecko) Chrome/74.0.3729.131 Safari/537.36"",""on_chrome"":true,""on_mobile"":false,""language"":""en-US"",""screen_resolution"":[1440,900],""platform"":""MacIntel"",""timezone"":""Europe/Berlin""}","1","1772.2849999934901","","","1557390454430","11","","Alfeld","[]","Alfeld","true","false","3347.5000000034925"
"","html-voicekey-response","33","278937","0.0-4.29-0.29","fybd97xfstv527g","{""user_agent"":""Mozilla/5.0 (Macintosh; Intel Mac OS X 10_14_4) AppleWebKit/537.36 (KHTML, like Gecko) Chrome/74.0.3729.131 Safari/537.36"",""on_chrome"":true,""on_mobile"":false,""language"":""en-US"",""screen_resolution"":[1440,900],""platform"":""MacIntel"",""timezone"":""Europe/Berlin""}","1","1604.3549999975135","","","1557390458380","12","","Dessau","[]","Dessau","true","false","2813.9650000084657"
"","html-voicekey-response","34","283460","0.0-4.30-0.30","fybd97xfstv527g","{""user_agent"":""Mozilla/5.0 (Macintosh; Intel Mac OS X 10_14_4) AppleWebKit/537.36 (KHTML, like Gecko) Chrome/74.0.3729.131 Safari/537.36"",""on_chrome"":true,""on_mobile"":false,""language"":""en-US"",""screen_resolution"":[1440,900],""platform"":""MacIntel"",""timezone"":""Europe/Berlin""}","1","2713.0249999844004","","","1557390461797","7","","Erfurt","[]","Erfurt","true","false","3920.619999989867"
"","html-voicekey-response","35","287094","0.0-4.31-0.31","fybd97xfstv527g","{""user_agent"":""Mozilla/5.0 (Macintosh; Intel Mac OS X 10_14_4) AppleWebKit/537.36 (KHTML, like Gecko) Chrome/74.0.3729.131 Safari/537.36"",""on_chrome"":true,""on_mobile"":false,""language"":""en-US"",""screen_resolution"":[1440,900],""platform"":""MacIntel"",""timezone"":""Europe/Berlin""}","1","1854.6549999826589","","","1557390466321","8","","Gotha","[]","Gotha","true","false","3029.839999973774"
"","html-voicekey-response","36","290798","0.0-4.32-0.32","fybd97xfstv527g","{""user_agent"":""Mozilla/5.0 (Macintosh; Intel Mac OS X 10_14_4) AppleWebKit/537.36 (KHTML, like Gecko) Chrome/74.0.3729.131 Safari/537.36"",""on_chrome"":true,""on_mobile"":false,""language"":""en-US"",""screen_resolution"":[1440,900],""platform"":""MacIntel"",""timezone"":""Europe/Berlin""}","1","1723.3849999991712","","","1557390469954","9","","München","[]","München","true","false","3098.4499999904074"
"","html-voicekey-response","37","294533","0.0-4.33-0.33","fybd97xfstv527g","{""user_agent"":""Mozilla/5.0 (Macintosh; Intel Mac OS X 10_14_4) AppleWebKit/537.36 (KHTML, like Gecko) Chrome/74.0.3729.131 Safari/537.36"",""on_chrome"":true,""on_mobile"":false,""language"":""en-US"",""screen_resolution"":[1440,900],""platform"":""MacIntel"",""timezone"":""Europe/Berlin""}","1","1740.2450000025333","","","1557390473658","4","","Würzburg","[]","Würzburg","true","false","3131.2099999922793"
"","html-voicekey-response","38","298967","0.0-4.34-0.34","fybd97xfstv527g","{""user_agent"":""Mozilla/5.0 (Macintosh; Intel Mac OS X 10_14_4) AppleWebKit/537.36 (KHTML, like Gecko) Chrome/74.0.3729.131 Safari/537.36"",""on_chrome"":true,""on_mobile"":false,""language"":""en-US"",""screen_resolution"":[1440,900],""platform"":""MacIntel"",""timezone"":""Europe/Berlin""}","1","2604.8950000057","","","1557390477393","3","","Ingolstadt","[]","Ingolstadt","true","false","3830.584999988787"
"","html-voicekey-response","39","302623","0.0-4.35-0.35","fybd97xfstv527g","{""user_agent"":""Mozilla/5.0 (Macintosh; Intel Mac OS X 10_14_4) AppleWebKit/537.36 (KHTML, like Gecko) Chrome/74.0.3729.131 Safari/537.36"",""on_chrome"":true,""on_mobile"":false,""language"":""en-US"",""screen_resolution"":[1440,900],""platform"":""MacIntel"",""timezone"":""Europe/Berlin""}","1","1554.9550000085496","","","1557390481827","1","","Magdeburg","[]","Magdeburg","true","false","3054.15000001085"
"","html-voicekey-response","40","306441","0.0-4.36-0.36","fybd97xfstv527g","{""user_agent"":""Mozilla/5.0 (Macintosh; Intel Mac OS X 10_14_4) AppleWebKit/537.36 (KHTML, like Gecko) Chrome/74.0.3729.131 Safari/537.36"",""on_chrome"":true,""on_mobile"":false,""language"":""en-US"",""screen_resolution"":[1440,900],""platform"":""MacIntel"",""timezone"":""Europe/Berlin""}","1","1504.5999999945984","","","1557390485484","10","","Heidelberg","[]","Heidelberg","true","false","3213.435000012396"
"","html-voicekey-response","41","310256","0.0-4.37-0.37","fybd97xfstv527g","{""user_agent"":""Mozilla/5.0 (Macintosh; Intel Mac OS X 10_14_4) AppleWebKit/537.36 (KHTML, like Gecko) Chrome/74.0.3729.131 Safari/537.36"",""on_chrome"":true,""on_mobile"":false,""language"":""en-US"",""screen_resolution"":[1440,900],""platform"":""MacIntel"",""timezone"":""Europe/Berlin""}","1","1803.954999990156","","","1557390489301","13","","Chemnitz","[]","Chemnitz","true","true","3212.7049999835435"
"","html-voicekey-response","42","314397","0.0-4.38-0.38","fybd97xfstv527g","{""user_agent"":""Mozilla/5.0 (Macintosh; Intel Mac OS X 10_14_4) AppleWebKit/537.36 (KHTML, like Gecko) Chrome/74.0.3729.131 Safari/537.36"",""on_chrome"":true,""on_mobile"":false,""language"":""en-US"",""screen_resolution"":[1440,900],""platform"":""MacIntel"",""timezone"":""Europe/Berlin""}","1","2144.7149999820163","","","1557390493118","14","","Potsdam","[]","Potsdam","true","true","3535.824999999022"
"","html-voicekey-response","43","324566","0.0-4.39-0.39","fybd97xfstv527g","{""user_agent"":""Mozilla/5.0 (Macintosh; Intel Mac OS X 10_14_4) AppleWebKit/537.36 (KHTML, like Gecko) Chrome/74.0.3729.131 Safari/537.36"",""on_chrome"":true,""on_mobile"":false,""language"":""en-US"",""screen_resolution"":[1440,900],""platform"":""MacIntel"",""timezone"":""Europe/Berlin""}","1","5255.4099999923255","","","1557390497257","13","","","[]","Chemnitz","false","false","6164.144999987911"
"","html-voicekey-response","44","329372","0.0-4.40-0.40","fybd97xfstv527g","{""user_agent"":""Mozilla/5.0 (Macintosh; Intel Mac OS X 10_14_4) AppleWebKit/537.36 (KHTML, like Gecko) Chrome/74.0.3729.131 Safari/537.36"",""on_chrome"":true,""on_mobile"":false,""language"":""en-US"",""screen_resolution"":[1440,900],""platform"":""MacIntel"",""timezone"":""Europe/Berlin""}","1","3061.4149999835995","","","1557390507425","14","","Potsdam","[]","Potsdam","true","false","4203.859999979613"
"","html-voicekey-response","45","332756","0.0-4.41-0.41","fybd97xfstv527g","{""user_agent"":""Mozilla/5.0 (Macintosh; Intel Mac OS X 10_14_4) AppleWebKit/537.36 (KHTML, like Gecko) Chrome/74.0.3729.131 Safari/537.36"",""on_chrome"":true,""on_mobile"":false,""language"":""en-US"",""screen_resolution"":[1440,900],""platform"":""MacIntel"",""timezone"":""Europe/Berlin""}","1","1421.5449999990874","","","1557390512232","11","","Alfeld","[]","Alfeld","true","false","2780.9650000126567"
"","html-voicekey-response","46","336412","0.0-4.42-0.42","fybd97xfstv527g","{""user_agent"":""Mozilla/5.0 (Macintosh; Intel Mac OS X 10_14_4) AppleWebKit/537.36 (KHTML, like Gecko) Chrome/74.0.3729.131 Safari/537.36"",""on_chrome"":true,""on_mobile"":false,""language"":""en-US"",""screen_resolution"":[1440,900],""platform"":""MacIntel"",""timezone"":""Europe/Berlin""}","1","1823.6999999879395","","","1557390515619","12","","Dessau","[]","Dessau","true","false","3049.8249999945983"
"","html-voicekey-response","47","339745","0.0-4.43-0.43","fybd97xfstv527g","{""user_agent"":""Mozilla/5.0 (Macintosh; Intel Mac OS X 10_14_4) AppleWebKit/537.36 (KHTML, like Gecko) Chrome/74.0.3729.131 Safari/537.36"",""on_chrome"":true,""on_mobile"":false,""language"":""en-US"",""screen_resolution"":[1440,900],""platform"":""MacIntel"",""timezone"":""Europe/Berlin""}","1","1653.6749999884983","","","1557390519273","2","","Berlin","[]","Berlin","true","false","2729.605000000447"
"","html-voicekey-response","48","343695","0.0-4.44-0.44","fybd97xfstv527g","{""user_agent"":""Mozilla/5.0 (Macintosh; Intel Mac OS X 10_14_4) AppleWebKit/537.36 (KHTML, like Gecko) Chrome/74.0.3729.131 Safari/537.36"",""on_chrome"":true,""on_mobile"":false,""language"":""en-US"",""screen_resolution"":[1440,900],""platform"":""MacIntel"",""timezone"":""Europe/Berlin""}","1","1953.0949999842328","","","1557390522606","15","","Nürnberg","[]","Nürnberg","true","true","3345.9149999835063"
"","html-voicekey-response","49","347818","0.0-4.45-0.45","fybd97xfstv527g","{""user_agent"":""Mozilla/5.0 (Macintosh; Intel Mac OS X 10_14_4) AppleWebKit/537.36 (KHTML, like Gecko) Chrome/74.0.3729.131 Safari/537.36"",""on_chrome"":true,""on_mobile"":false,""language"":""en-US"",""screen_resolution"":[1440,900],""platform"":""MacIntel"",""timezone"":""Europe/Berlin""}","1","1927.8049999937416","","","1557390526556","16","","Schwangau","[]","Schwangau","true","true","3519.4049999990966"
"","html-voicekey-response","50","352035","0.0-4.46-0.46","fybd97xfstv527g","{""user_agent"":""Mozilla/5.0 (Macintosh; Intel Mac OS X 10_14_4) AppleWebKit/537.36 (KHTML, like Gecko) Chrome/74.0.3729.131 Safari/537.36"",""on_chrome"":true,""on_mobile"":false,""language"":""en-US"",""screen_resolution"":[1440,900],""platform"":""MacIntel"",""timezone"":""Europe/Berlin""}","1","1969.999999981001","","","1557390530680","15","","Nürnberg","[]","Nürnberg","true","false","3612.414999981411"
"","html-voicekey-response","51","355578","0.0-4.47-0.47","fybd97xfstv527g","{""user_agent"":""Mozilla/5.0 (Macintosh; Intel Mac OS X 10_14_4) AppleWebKit/537.36 (KHTML, like Gecko) Chrome/74.0.3729.131 Safari/537.36"",""on_chrome"":true,""on_mobile"":false,""language"":""en-US"",""screen_resolution"":[1440,900],""platform"":""MacIntel"",""timezone"":""Europe/Berlin""}","1","1436.5799999885262","","","1557390534896","16","","Schwangau","[]","Schwangau","true","false","2938.4900000004563"
"","html-voicekey-response","52","358978","0.0-4.48-0.48","fybd97xfstv527g","{""user_agent"":""Mozilla/5.0 (Macintosh; Intel Mac OS X 10_14_4) AppleWebKit/537.36 (KHTML, like Gecko) Chrome/74.0.3729.131 Safari/537.36"",""on_chrome"":true,""on_mobile"":false,""language"":""en-US"",""screen_resolution"":[1440,900],""platform"":""MacIntel"",""timezone"":""Europe/Berlin""}","1","1689.714999994822","","","1557390538437","7","","Erfurt","[]","Erfurt","true","false","2797.824999986915"
"","html-voicekey-response","53","362512","0.0-4.49-0.49","fybd97xfstv527g","{""user_agent"":""Mozilla/5.0 (Macintosh; Intel Mac OS X 10_14_4) AppleWebKit/537.36 (KHTML, like Gecko) Chrome/74.0.3729.131 Safari/537.36"",""on_chrome"":true,""on_mobile"":false,""language"":""en-US"",""screen_resolution"":[1440,900],""platform"":""MacIntel"",""timezone"":""Europe/Berlin""}","1","1739.6950000055135","","","1557390541837","17","","Leipzig","[]","Leipzig","true","true","2931.860000011511"
"","html-voicekey-response","54","367304","0.0-4.50-0.50","fybd97xfstv527g","{""user_agent"":""Mozilla/5.0 (Macintosh; Intel Mac OS X 10_14_4) AppleWebKit/537.36 (KHTML, like Gecko) Chrome/74.0.3729.131 Safari/537.36"",""on_chrome"":true,""on_mobile"":false,""language"":""en-US"",""screen_resolution"":[1440,900],""platform"":""MacIntel"",""timezone"":""Europe/Berlin""}","1","3187.3799999974203","","","1557390545372","13","","Chemnitz","[]","Chemnitz","true","false","4188.769999978831"
"","html-voicekey-response","55","379237","0.0-4.51-0.51","fybd97xfstv527g","{""user_agent"":""Mozilla/5.0 (Macintosh; Intel Mac OS X 10_14_4) AppleWebKit/537.36 (KHTML, like Gecko) Chrome/74.0.3729.131 Safari/537.36"",""on_chrome"":true,""on_mobile"":false,""language"":""en-US"",""screen_resolution"":[1440,900],""platform"":""MacIntel"",""timezone"":""Europe/Berlin""}","1","7054.620000018831","","","1557390550164","17","","","[]","Leipzig","false","false","7929.5100000163075"
"","html-voicekey-response","56","386949","0.0-4.52-0.52","fybd97xfstv527g","{""user_agent"":""Mozilla/5.0 (Macintosh; Intel Mac OS X 10_14_4) AppleWebKit/537.36 (KHTML, like Gecko) Chrome/74.0.3729.131 Safari/537.36"",""on_chrome"":true,""on_mobile"":false,""language"":""en-US"",""screen_resolution"":[1440,900],""platform"":""MacIntel"",""timezone"":""Europe/Berlin""}","1","2415.9699999816717","","","1557390562097","14","","","[]","Potsdam","false","false","3708.474999992177"
"","html-voicekey-response","57","390974","0.0-4.53-0.53","fybd97xfstv527g","{""user_agent"":""Mozilla/5.0 (Macintosh; Intel Mac OS X 10_14_4) AppleWebKit/537.36 (KHTML, like Gecko) Chrome/74.0.3729.131 Safari/537.36"",""on_chrome"":true,""on_mobile"":false,""language"":""en-US"",""screen_resolution"":[1440,900],""platform"":""MacIntel"",""timezone"":""Europe/Berlin""}","1","1922.240000023367","","","1557390569808","18","","Forchheim","[]","Forchheim","true","true","3422.4550000217278"
"","html-voicekey-response","58","397639","0.0-4.54-0.54","fybd97xfstv527g","{""user_agent"":""Mozilla/5.0 (Macintosh; Intel Mac OS X 10_14_4) AppleWebKit/537.36 (KHTML, like Gecko) Chrome/74.0.3729.131 Safari/537.36"",""on_chrome"":true,""on_mobile"":false,""language"":""en-US"",""screen_resolution"":[1440,900],""platform"":""MacIntel"",""timezone"":""Europe/Berlin""}","1","4587.190000000037","","","1557390573834","3","","Ingolstadt","[]","Ingolstadt","true","false","6062.534999975469"
"","html-voicekey-response","59","402012","0.0-4.55-0.55","fybd97xfstv527g","{""user_agent"":""Mozilla/5.0 (Macintosh; Intel Mac OS X 10_14_4) AppleWebKit/537.36 (KHTML, like Gecko) Chrome/74.0.3729.131 Safari/537.36"",""on_chrome"":true,""on_mobile"":false,""language"":""en-US"",""screen_resolution"":[1440,900],""platform"":""MacIntel"",""timezone"":""Europe/Berlin""}","1","2178.469999993313","","","1557390580499","18","","Forchheim","[]","Forchheim","true","false","3769.8449999734294"
"","html-voicekey-response","60","405713","0.0-4.56-0.56","fybd97xfstv527g","{""user_agent"":""Mozilla/5.0 (Macintosh; Intel Mac OS X 10_14_4) AppleWebKit/537.36 (KHTML, like Gecko) Chrome/74.0.3729.131 Safari/537.36"",""on_chrome"":true,""on_mobile"":false,""language"":""en-US"",""screen_resolution"":[1440,900],""platform"":""MacIntel"",""timezone"":""Europe/Berlin""}","1","1722.4199999853504","","","1557390584871","15","","Nürnberg","[]","Nürnberg","true","false","3098.150000005262"
"","html-voicekey-response","61","409098","0.0-4.57-0.57","fybd97xfstv527g","{""user_agent"":""Mozilla/5.0 (Macintosh; Intel Mac OS X 10_14_4) AppleWebKit/537.36 (KHTML, like Gecko) Chrome/74.0.3729.131 Safari/537.36"",""on_chrome"":true,""on_mobile"":false,""language"":""en-US"",""screen_resolution"":[1440,900],""platform"":""MacIntel"",""timezone"":""Europe/Berlin""}","1","1554.8900000083727","","","1557390588572","16","","Schwangau","[]","Schwangau","true","false","2780.2950000041164"
"","html-voicekey-response","62","413403","0.0-4.58-0.58","fybd97xfstv527g","{""user_agent"":""Mozilla/5.0 (Macintosh; Intel Mac OS X 10_14_4) AppleWebKit/537.36 (KHTML, like Gecko) Chrome/74.0.3729.131 Safari/537.36"",""on_chrome"":true,""on_mobile"":false,""language"":""en-US"",""screen_resolution"":[1440,900],""platform"":""MacIntel"",""timezone"":""Europe/Berlin""}","1","2877.6100000048523","","","1557390591958","13","","Chemnitz","[]","Chemnitz","true","false","3701.920000021346"
"","html-voicekey-response","63","421254","0.0-4.59-0.59","fybd97xfstv527g","{""user_agent"":""Mozilla/5.0 (Macintosh; Intel Mac OS X 10_14_4) AppleWebKit/537.36 (KHTML, like Gecko) Chrome/74.0.3729.131 Safari/537.36"",""on_chrome"":true,""on_mobile"":false,""language"":""en-US"",""screen_resolution"":[1440,900],""platform"":""MacIntel"",""timezone"":""Europe/Berlin""}","1","2822.9450000015554","","","1557390596263","17","","","[]","Leipzig","false","false","3847.6800000062212"
"","html-voicekey-response","64","424665","0.0-4.60-0.60","fybd97xfstv527g","{""user_agent"":""Mozilla/5.0 (Macintosh; Intel Mac OS X 10_14_4) AppleWebKit/537.36 (KHTML, like Gecko) Chrome/74.0.3729.131 Safari/537.36"",""on_chrome"":true,""on_mobile"":false,""language"":""en-US"",""screen_resolution"":[1440,900],""platform"":""MacIntel"",""timezone"":""Europe/Berlin""}","1","1870.7199999860954","","","1557390604115","14","","Potsdam","[]","Potsdam","true","false","2807.5149999931455"
"","html-voicekey-response","65","428281","0.0-4.61-0.61","fybd97xfstv527g","{""user_agent"":""Mozilla/5.0 (Macintosh; Intel Mac OS X 10_14_4) AppleWebKit/537.36 (KHTML, like Gecko) Chrome/74.0.3729.131 Safari/537.36"",""on_chrome"":true,""on_mobile"":false,""language"":""en-US"",""screen_resolution"":[1440,900],""platform"":""MacIntel"",""timezone"":""Europe/Berlin""}","1","1837.3100000115578","","","1557390607525","19","","Frankfurt","[]","Frankfurt","true","true","3013.265000015963"
"","html-voicekey-response","66","431664","0.0-4.62-0.62","fybd97xfstv527g","{""user_agent"":""Mozilla/5.0 (Macintosh; Intel Mac OS X 10_14_4) AppleWebKit/537.36 (KHTML, like Gecko) Chrome/74.0.3729.131 Safari/537.36"",""on_chrome"":true,""on_mobile"":false,""language"":""en-US"",""screen_resolution"":[1440,900],""platform"":""MacIntel"",""timezone"":""Europe/Berlin""}","1","1737.5999999729452","","","1557390611141","20","","Hamburg ","[]","Hamburg ","true","true","2779.949999996461"
"","html-voicekey-response","67","434854","0.0-4.63-0.63","fybd97xfstv527g","{""user_agent"":""Mozilla/5.0 (Macintosh; Intel Mac OS X 10_14_4) AppleWebKit/537.36 (KHTML, like Gecko) Chrome/74.0.3729.131 Safari/537.36"",""on_chrome"":true,""on_mobile"":false,""language"":""en-US"",""screen_resolution"":[1440,900],""platform"":""MacIntel"",""timezone"":""Europe/Berlin""}","1","1705.4250000017696","","","1557390614524","19","","Frankfurt","[]","Frankfurt","true","false","2587.6099999877624"
"","html-voicekey-response","68","437921","0.0-4.64-0.64","fybd97xfstv527g","{""user_agent"":""Mozilla/5.0 (Macintosh; Intel Mac OS X 10_14_4) AppleWebKit/537.36 (KHTML, like Gecko) Chrome/74.0.3729.131 Safari/537.36"",""on_chrome"":true,""on_mobile"":false,""language"":""en-US"",""screen_resolution"":[1440,900],""platform"":""MacIntel"",""timezone"":""Europe/Berlin""}","1","1603.734999991348","","","1557390617716","20","","Hamburg ","[]","Hamburg ","true","false","2462.52000000095"
"","html-voicekey-response","69","441938","0.0-4.65-0.65","fybd97xfstv527g","{""user_agent"":""Mozilla/5.0 (Macintosh; Intel Mac OS X 10_14_4) AppleWebKit/537.36 (KHTML, like Gecko) Chrome/74.0.3729.131 Safari/537.36"",""on_chrome"":true,""on_mobile"":false,""language"":""en-US"",""screen_resolution"":[1440,900],""platform"":""MacIntel"",""timezone"":""Europe/Berlin""}","1","1936.339999994589","","","1557390620783","21","","Konstanz","[]","Konstanz","true","true","3411.6250000079162"
"","html-voicekey-response","70","448781","0.0-4.66-0.66","fybd97xfstv527g","{""user_agent"":""Mozilla/5.0 (Macintosh; Intel Mac OS X 10_14_4) AppleWebKit/537.36 (KHTML, like Gecko) Chrome/74.0.3729.131 Safari/537.36"",""on_chrome"":true,""on_mobile"":false,""language"":""en-US"",""screen_resolution"":[1440,900],""platform"":""MacIntel"",""timezone"":""Europe/Berlin""}","1","5321.6049999844745","","","1557390624797","13","","Chemnitz","[]","Chemnitz","true","false","6240.789999981644"
"","html-voicekey-response","71","452764","0.0-4.67-0.67","fybd97xfstv527g","{""user_agent"":""Mozilla/5.0 (Macintosh; Intel Mac OS X 10_14_4) AppleWebKit/537.36 (KHTML, like Gecko) Chrome/74.0.3729.131 Safari/537.36"",""on_chrome"":true,""on_mobile"":false,""language"":""en-US"",""screen_resolution"":[1440,900],""platform"":""MacIntel"",""timezone"":""Europe/Berlin""}","1","2221.9150000108407","","","1557390631641","21","","Konstanz","[]","Konstanz","true","false","3380.715000006603"
"","html-voicekey-response","72","457273","0.0-4.68-0.68","fybd97xfstv527g","{""user_agent"":""Mozilla/5.0 (Macintosh; Intel Mac OS X 10_14_4) AppleWebKit/537.36 (KHTML, like Gecko) Chrome/74.0.3729.131 Safari/537.36"",""on_chrome"":true,""on_mobile"":false,""language"":""en-US"",""screen_resolution"":[1440,900],""platform"":""MacIntel"",""timezone"":""Europe/Berlin""}","1","3012.8350000103005","","","1557390635624","18","","Forchheim","[]","Forchheim","true","false","3905.9349999879487"
"","html-voicekey-response","73","461406","0.0-4.69-0.69","fybd97xfstv527g","{""user_agent"":""Mozilla/5.0 (Macintosh; Intel Mac OS X 10_14_4) AppleWebKit/537.36 (KHTML, like Gecko) Chrome/74.0.3729.131 Safari/537.36"",""on_chrome"":true,""on_mobile"":false,""language"":""en-US"",""screen_resolution"":[1440,900],""platform"":""MacIntel"",""timezone"":""Europe/Berlin""}","1","2536.9600000065752","","","1557390640133","17","","Leipzig","[]","Leipzig","true","false","3530.2800000063144"
"","html-voicekey-response","74","465489","0.0-4.70-0.70","fybd97xfstv527g","{""user_agent"":""Mozilla/5.0 (Macintosh; Intel Mac OS X 10_14_4) AppleWebKit/537.36 (KHTML, like Gecko) Chrome/74.0.3729.131 Safari/537.36"",""on_chrome"":true,""on_mobile"":false,""language"":""en-US"",""screen_resolution"":[1440,900],""platform"":""MacIntel"",""timezone"":""Europe/Berlin""}","1","2288.0450000028127","","","1557390644266","22","","Bamberg","[]","Bamberg","true","true","3480.455000011716"
"","html-voicekey-response","75","468817","0.0-4.71-0.71","fybd97xfstv527g","{""user_agent"":""Mozilla/5.0 (Macintosh; Intel Mac OS X 10_14_4) AppleWebKit/537.36 (KHTML, like Gecko) Chrome/74.0.3729.131 Safari/537.36"",""on_chrome"":true,""on_mobile"":false,""language"":""en-US"",""screen_resolution"":[1440,900],""platform"":""MacIntel"",""timezone"":""Europe/Berlin""}","1","1566.04999997383","","","1557390648349","23","","Stuttgart","[]","Stuttgart","true","true","2724.4449999998324"
"","html-voicekey-response","76","472283","0.0-4.72-0.72","fybd97xfstv527g","{""user_agent"":""Mozilla/5.0 (Macintosh; Intel Mac OS X 10_14_4) AppleWebKit/537.36 (KHTML, like Gecko) Chrome/74.0.3729.131 Safari/537.36"",""on_chrome"":true,""on_mobile"":false,""language"":""en-US"",""screen_resolution"":[1440,900],""platform"":""MacIntel"",""timezone"":""Europe/Berlin""}","1","2004.575000007963","","","1557390651677","22","","Bamberg","[]","Bamberg","true","false","2863.309999986086"
"","html-voicekey-response","77","475433","0.0-4.73-0.73","fybd97xfstv527g","{""user_agent"":""Mozilla/5.0 (Macintosh; Intel Mac OS X 10_14_4) AppleWebKit/537.36 (KHTML, like Gecko) Chrome/74.0.3729.131 Safari/537.36"",""on_chrome"":true,""on_mobile"":false,""language"":""en-US"",""screen_resolution"":[1440,900],""platform"":""MacIntel"",""timezone"":""Europe/Berlin""}","1","1389.0700000136626","","","1557390655143","23","","Stuttgart","[]","Stuttgart","true","false","2547.5450000085402"
"","html-voicekey-response","78","478790","0.0-4.74-0.74","fybd97xfstv527g","{""user_agent"":""Mozilla/5.0 (Macintosh; Intel Mac OS X 10_14_4) AppleWebKit/537.36 (KHTML, like Gecko) Chrome/74.0.3729.131 Safari/537.36"",""on_chrome"":true,""on_mobile"":false,""language"":""en-US"",""screen_resolution"":[1440,900],""platform"":""MacIntel"",""timezone"":""Europe/Berlin""}","1","1695.174999980582","","","1557390658293","24","","Köln","[]","Köln","true","true","2753.8449999992736"
"","html-voicekey-response","79","482323","0.0-4.75-0.75","fybd97xfstv527g","{""user_agent"":""Mozilla/5.0 (Macintosh; Intel Mac OS X 10_14_4) AppleWebKit/537.36 (KHTML, like Gecko) Chrome/74.0.3729.131 Safari/537.36"",""on_chrome"":true,""on_mobile"":false,""language"":""en-US"",""screen_resolution"":[1440,900],""platform"":""MacIntel"",""timezone"":""Europe/Berlin""}","1","1671.485000007879","","","1557390661650","19","","Frankfurt","[]","Frankfurt","true","false","2929.900000017369"
"","html-voicekey-response","80","485108","0.0-4.76-0.76","fybd97xfstv527g","{""user_agent"":""Mozilla/5.0 (Macintosh; Intel Mac OS X 10_14_4) AppleWebKit/537.36 (KHTML, like Gecko) Chrome/74.0.3729.131 Safari/537.36"",""on_chrome"":true,""on_mobile"":false,""language"":""en-US"",""screen_resolution"":[1440,900],""platform"":""MacIntel"",""timezone"":""Europe/Berlin""}","1","1489.5700000141283","","","1557390665183","24","","Köln","[]","Köln","true","false","2182.5600000156555"
"","html-voicekey-response","81","488281","0.0-4.77-0.77","fybd97xfstv527g","{""user_agent"":""Mozilla/5.0 (Macintosh; Intel Mac OS X 10_14_4) AppleWebKit/537.36 (KHTML, like Gecko) Chrome/74.0.3729.131 Safari/537.36"",""on_chrome"":true,""on_mobile"":false,""language"":""en-US"",""screen_resolution"":[1440,900],""platform"":""MacIntel"",""timezone"":""Europe/Berlin""}","1","1637.6749999852386","","","1557390667968","20","","Hamburg ","[]","Hamburg ","true","false","2569.9099999910686"
"","html-voicekey-response","82","495431","0.0-4.78-0.78","fybd97xfstv527g","{""user_agent"":""Mozilla/5.0 (Macintosh; Intel Mac OS X 10_14_4) AppleWebKit/537.36 (KHTML, like Gecko) Chrome/74.0.3729.131 Safari/537.36"",""on_chrome"":true,""on_mobile"":false,""language"":""en-US"",""screen_resolution"":[1440,900],""platform"":""MacIntel"",""timezone"":""Europe/Berlin""}","1","2171.310000014119","","","1557390671141","17","","","[]","Leipzig","false","false","3146.810000005644"
"","html-voicekey-response","83","499172","0.0-4.79-0.79","fybd97xfstv527g","{""user_agent"":""Mozilla/5.0 (Macintosh; Intel Mac OS X 10_14_4) AppleWebKit/537.36 (KHTML, like Gecko) Chrome/74.0.3729.131 Safari/537.36"",""on_chrome"":true,""on_mobile"":false,""language"":""en-US"",""screen_resolution"":[1440,900],""platform"":""MacIntel"",""timezone"":""Europe/Berlin""}","1","2254.624999981234","","","1557390678291","1","","Magdeburg","[]","Magdeburg","true","false","3137.8749999857973"
"","html-voicekey-response","84","502221","0.0-4.80-0.80","fybd97xfstv527g","{""user_agent"":""Mozilla/5.0 (Macintosh; Intel Mac OS X 10_14_4) AppleWebKit/537.36 (KHTML, like Gecko) Chrome/74.0.3729.131 Safari/537.36"",""on_chrome"":true,""on_mobile"":false,""language"":""en-US"",""screen_resolution"":[1440,900],""platform"":""MacIntel"",""timezone"":""Europe/Berlin""}","1","1387.4150000136347","","","1557390682032","18","","Forchheim","[]","Forchheim","true","false","2445.7300000067335"
"","html-voicekey-response","85","514787","0.0-4.81-0.81","fybd97xfstv527g","{""user_agent"":""Mozilla/5.0 (Macintosh; Intel Mac OS X 10_14_4) AppleWebKit/537.36 (KHTML, like Gecko) Chrome/74.0.3729.131 Safari/537.36"",""on_chrome"":true,""on_mobile"":false,""language"":""en-US"",""screen_resolution"":[1440,900],""platform"":""MacIntel"",""timezone"":""Europe/Berlin""}","1","7453.714999990398","","","1557390685081","21","","","[]","Konstanz","false","false","8562.815000012051"
"","html-voicekey-response","86","520382","0.0-4.82-0.82","fybd97xfstv527g","{""user_agent"":""Mozilla/5.0 (Macintosh; Intel Mac OS X 10_14_4) AppleWebKit/537.36 (KHTML, like Gecko) Chrome/74.0.3729.131 Safari/537.36"",""on_chrome"":true,""on_mobile"":false,""language"":""en-US"",""screen_resolution"":[1440,900],""platform"":""MacIntel"",""timezone"":""Europe/Berlin""}","1","4180.780000004079","","","1557390697649","13","","Chemnitz","[]","Chemnitz","true","false","4990.629999985686"
"","html-voicekey-response","87","524740","0.0-4.83-0.83","fybd97xfstv527g","{""user_agent"":""Mozilla/5.0 (Macintosh; Intel Mac OS X 10_14_4) AppleWebKit/537.36 (KHTML, like Gecko) Chrome/74.0.3729.131 Safari/537.36"",""on_chrome"":true,""on_mobile"":false,""language"":""en-US"",""screen_resolution"":[1440,900],""platform"":""MacIntel"",""timezone"":""Europe/Berlin""}","1","2976.8999999885914","","","1557390703243","17","","Leipzig","[]","Leipzig","true","false","3753.9149999793153"
"","html-voicekey-response","88","529239","0.0-4.84-0.84","fybd97xfstv527g","{""user_agent"":""Mozilla/5.0 (Macintosh; Intel Mac OS X 10_14_4) AppleWebKit/537.36 (KHTML, like Gecko) Chrome/74.0.3729.131 Safari/537.36"",""on_chrome"":true,""on_mobile"":false,""language"":""en-US"",""screen_resolution"":[1440,900],""platform"":""MacIntel"",""timezone"":""Europe/Berlin""}","1","2953.23499997342","","","1557390707600","22","","Bamberg","[]","Bamberg","true","false","3896.1599999747705"
"","html-voicekey-response","89","532208","0.0-4.85-0.85","fybd97xfstv527g","{""user_agent"":""Mozilla/5.0 (Macintosh; Intel Mac OS X 10_14_4) AppleWebKit/537.36 (KHTML, like Gecko) Chrome/74.0.3729.131 Safari/537.36"",""on_chrome"":true,""on_mobile"":false,""language"":""en-US"",""screen_resolution"":[1440,900],""platform"":""MacIntel"",""timezone"":""Europe/Berlin""}","1","1619.680000012368","","","1557390712100","23","","Stuttgart","[]","Stuttgart","true","false","2362.600000022212"
"","html-voicekey-response","90","535446","0.0-4.86-0.86","fybd97xfstv527g","{""user_agent"":""Mozilla/5.0 (Macintosh; Intel Mac OS X 10_14_4) AppleWebKit/537.36 (KHTML, like Gecko) Chrome/74.0.3729.131 Safari/537.36"",""on_chrome"":true,""on_mobile"":false,""language"":""en-US"",""screen_resolution"":[1440,900],""platform"":""MacIntel"",""timezone"":""Europe/Berlin""}","1","1609.1500000128058","","","1557390715069","14","","Potsdam","[]","Potsdam","true","false","2633.7099999946076"
"","html-voicekey-response","91","538146","0.0-4.87-0.87","fybd97xfstv527g","{""user_agent"":""Mozilla/5.0 (Macintosh; Intel Mac OS X 10_14_4) AppleWebKit/537.36 (KHTML, like Gecko) Chrome/74.0.3729.131 Safari/537.36"",""on_chrome"":true,""on_mobile"":false,""language"":""en-US"",""screen_resolution"":[1440,900],""platform"":""MacIntel"",""timezone"":""Europe/Berlin""}","1","1421.7649999862538","","","1557390718306","24","","Köln","[]","Köln","true","false","2097.199999989243"
"","html-voicekey-response","92","548129","0.0-4.88-0.88","fybd97xfstv527g","{""user_agent"":""Mozilla/5.0 (Macintosh; Intel Mac OS X 10_14_4) AppleWebKit/537.36 (KHTML, like Gecko) Chrome/74.0.3729.131 Safari/537.36"",""on_chrome"":true,""on_mobile"":false,""language"":""en-US"",""screen_resolution"":[1440,900],""platform"":""MacIntel"",""timezone"":""Europe/Berlin""}","1","4505.240000007534","","","1557390721006","13","","","[]","Chemnitz","false","false","5979.859999992186"
"","html-voicekey-response","93","559771","0.0-4.89-0.89","fybd97xfstv527g","{""user_agent"":""Mozilla/5.0 (Macintosh; Intel Mac OS X 10_14_4) AppleWebKit/537.36 (KHTML, like Gecko) Chrome/74.0.3729.131 Safari/537.36"",""on_chrome"":true,""on_mobile"":false,""language"":""en-US"",""screen_resolution"":[1440,900],""platform"":""MacIntel"",""timezone"":""Europe/Berlin""}","1","6496.059999984782","","","1557390730989","3","","","[]","Ingolstadt","false","false","7637.595000007423"
"","html-voicekey-response","94","563898","0.0-4.90-0.90","fybd97xfstv527g","{""user_agent"":""Mozilla/5.0 (Macintosh; Intel Mac OS X 10_14_4) AppleWebKit/537.36 (KHTML, like Gecko) Chrome/74.0.3729.131 Safari/537.36"",""on_chrome"":true,""on_mobile"":false,""language"":""en-US"",""screen_resolution"":[1440,900],""platform"":""MacIntel"",""timezone"":""Europe/Berlin""}","1","2982.9999999872875","","","1557390742631","21","","Konstanz","[]","Konstanz","true","false","3524.569999979576"
"","html-voicekey-response","95","574300","0.0-4.91-0.91","fybd97xfstv527g","{""user_agent"":""Mozilla/5.0 (Macintosh; Intel Mac OS X 10_14_4) AppleWebKit/537.36 (KHTML, like Gecko) Chrome/74.0.3729.131 Safari/537.36"",""on_chrome"":true,""on_mobile"":false,""language"":""en-US"",""screen_resolution"":[1440,900],""platform"":""MacIntel"",""timezone"":""Europe/Berlin""}","1","5254.005000004172","","","1557390746759","13","","","[]","Chemnitz","false","false","6396.645000000717"
"","html-voicekey-response","96","577525","0.0-4.92-0.92","fybd97xfstv527g","{""user_agent"":""Mozilla/5.0 (Macintosh; Intel Mac OS X 10_14_4) AppleWebKit/537.36 (KHTML, like Gecko) Chrome/74.0.3729.131 Safari/537.36"",""on_chrome"":true,""on_mobile"":false,""language"":""en-US"",""screen_resolution"":[1440,900],""platform"":""MacIntel"",""timezone"":""Europe/Berlin""}","1","1862.4600000128617","","","1557390757161","7","","Erfurt","[]","Erfurt","true","false","2621.240000007674"
"","html-voicekey-response","97","580928","0.0-4.93-0.93","fybd97xfstv527g","{""user_agent"":""Mozilla/5.0 (Macintosh; Intel Mac OS X 10_14_4) AppleWebKit/537.36 (KHTML, like Gecko) Chrome/74.0.3729.131 Safari/537.36"",""on_chrome"":true,""on_mobile"":false,""language"":""en-US"",""screen_resolution"":[1440,900],""platform"":""MacIntel"",""timezone"":""Europe/Berlin""}","1","2221.0850000063424","","","1557390760386","17","","Leipzig","[]","Leipzig","true","false","2797.1100000140723"
"","html-voicekey-response","98","584182","0.0-4.94-0.94","fybd97xfstv527g","{""user_agent"":""Mozilla/5.0 (Macintosh; Intel Mac OS X 10_14_4) AppleWebKit/537.36 (KHTML, like Gecko) Chrome/74.0.3729.131 Safari/537.36"",""on_chrome"":true,""on_mobile"":false,""language"":""en-US"",""screen_resolution"":[1440,900],""platform"":""MacIntel"",""timezone"":""Europe/Berlin""}","1","2042.5499999926892","","","1557390763789","22","","Bamberg","[]","Bamberg","true","false","2649.74500000244"
"","html-voicekey-response","99","587168","0.0-4.95-0.95","fybd97xfstv527g","{""user_agent"":""Mozilla/5.0 (Macintosh; Intel Mac OS X 10_14_4) AppleWebKit/537.36 (KHTML, like Gecko) Chrome/74.0.3729.131 Safari/537.36"",""on_chrome"":true,""on_mobile"":false,""language"":""en-US"",""screen_resolution"":[1440,900],""platform"":""MacIntel"",""timezone"":""Europe/Berlin""}","1","1538.1850000211039","","","1557390767043","4","","Würzburg","[]","Würzburg","true","false","2381.554999999935"
"","html-voicekey-response","100","590233","0.0-4.96-0.96","fybd97xfstv527g","{""user_agent"":""Mozilla/5.0 (Macintosh; Intel Mac OS X 10_14_4) AppleWebKit/537.36 (KHTML, like Gecko) Chrome/74.0.3729.131 Safari/537.36"",""on_chrome"":true,""on_mobile"":false,""language"":""en-US"",""screen_resolution"":[1440,900],""platform"":""MacIntel"",""timezone"":""Europe/Berlin""}","1","1619.7199999968057","","","1557390770028","5","","Aachen","[]","Aachen","true","false","2460.879999998724"
"","html-voicekey-response","101","595343","0.0-4.97-0.97","fybd97xfstv527g","{""user_agent"":""Mozilla/5.0 (Macintosh; Intel Mac OS X 10_14_4) AppleWebKit/537.36 (KHTML, like Gecko) Chrome/74.0.3729.131 Safari/537.36"",""on_chrome"":true,""on_mobile"":false,""language"":""en-US"",""screen_resolution"":[1440,900],""platform"":""MacIntel"",""timezone"":""Europe/Berlin""}","1","3836.409999997914","","","1557390773095","3","","Ingolstadt","[]","Ingolstadt","true","false","4505.139999993844"
"","html-voicekey-response","102","599060","0.0-4.98-0.98","fybd97xfstv527g","{""user_agent"":""Mozilla/5.0 (Macintosh; Intel Mac OS X 10_14_4) AppleWebKit/537.36 (KHTML, like Gecko) Chrome/74.0.3729.131 Safari/537.36"",""on_chrome"":true,""on_mobile"":false,""language"":""en-US"",""screen_resolution"":[1440,900],""platform"":""MacIntel"",""timezone"":""Europe/Berlin""}","1","2685.905000000121","","","1557390778205","13","","Chemnitz","[]","Chemnitz","true","false","3111.7399999930058"
"","html-voicekey-response","103","601795","0.0-4.99-0.99","fybd97xfstv527g","{""user_agent"":""Mozilla/5.0 (Macintosh; Intel Mac OS X 10_14_4) AppleWebKit/537.36 (KHTML, like Gecko) Chrome/74.0.3729.131 Safari/537.36"",""on_chrome"":true,""on_mobile"":false,""language"":""en-US"",""screen_resolution"":[1440,900],""platform"":""MacIntel"",""timezone"":""Europe/Berlin""}","1","1605.3150000023657","","","1557390781919","21","","Konstanz","[]","Konstanz","true","false","2130.639999988489"
"","html-voicekey-response","104","604668","0.0-4.100-0.100","fybd97xfstv527g","{""user_agent"":""Mozilla/5.0 (Macintosh; Intel Mac OS X 10_14_4) AppleWebKit/537.36 (KHTML, like Gecko) Chrome/74.0.3729.131 Safari/537.36"",""on_chrome"":true,""on_mobile"":false,""language"":""en-US"",""screen_resolution"":[1440,900],""platform"":""MacIntel"",""timezone"":""Europe/Berlin""}","1","1527.3850000028965","","","1557390784656","6","","Dresden","[]","Dresden","true","false","2268.9700000046287"
"","html-voicekey-response","105","607501","0.0-4.101-0.101","fybd97xfstv527g","{""user_agent"":""Mozilla/5.0 (Macintosh; Intel Mac OS X 10_14_4) AppleWebKit/537.36 (KHTML, like Gecko) Chrome/74.0.3729.131 Safari/537.36"",""on_chrome"":true,""on_mobile"":false,""language"":""en-US"",""screen_resolution"":[1440,900],""platform"":""MacIntel"",""timezone"":""Europe/Berlin""}","1","1570.1349999961444","","","1557390787529","9","","München","[]","München","true","false","2229.0700000012293"
"","html-voicekey-response","106","613900","0.0-4.102-0.102","fybd97xfstv527g","{""user_agent"":""Mozilla/5.0 (Macintosh; Intel Mac OS X 10_14_4) AppleWebKit/537.36 (KHTML, like Gecko) Chrome/74.0.3729.131 Safari/537.36"",""on_chrome"":true,""on_mobile"":false,""language"":""en-US"",""screen_resolution"":[1440,900],""platform"":""MacIntel"",""timezone"":""Europe/Berlin""}","1","1586.2850000065287","","","1557390790362","8","","","[]","Gotha","false","false","2395.8550000097603"
"","html-voicekey-response","107","616529","0.0-4.103-0.103","fybd97xfstv527g","{""user_agent"":""Mozilla/5.0 (Macintosh; Intel Mac OS X 10_14_4) AppleWebKit/537.36 (KHTML, like Gecko) Chrome/74.0.3729.131 Safari/537.36"",""on_chrome"":true,""on_mobile"":false,""language"":""en-US"",""screen_resolution"":[1440,900],""platform"":""MacIntel"",""timezone"":""Europe/Berlin""}","1","1270.9000000121073","","","1557390796761","13","","Chemnitz","[]","Chemnitz","true","false","2023.864999995567"
"","html-voicekey-response","108","619128","0.0-4.104-0.104","fybd97xfstv527g","{""user_agent"":""Mozilla/5.0 (Macintosh; Intel Mac OS X 10_14_4) AppleWebKit/537.36 (KHTML, like Gecko) Chrome/74.0.3729.131 Safari/537.36"",""on_chrome"":true,""on_mobile"":false,""language"":""en-US"",""screen_resolution"":[1440,900],""platform"":""MacIntel"",""timezone"":""Europe/Berlin""}","1","1319.240000020573","","","1557390799390","10","","Heidelberg","[]","Heidelberg","true","false","1994.6900000213645"
"","html-voicekey-response","109","622844","0.0-4.105-0.105","fybd97xfstv527g","{""user_agent"":""Mozilla/5.0 (Macintosh; Intel Mac OS X 10_14_4) AppleWebKit/537.36 (KHTML, like Gecko) Chrome/74.0.3729.131 Safari/537.36"",""on_chrome"":true,""on_mobile"":false,""language"":""en-US"",""screen_resolution"":[1440,900],""platform"":""MacIntel"",""timezone"":""Europe/Berlin""}","1","1969.5649999865332","","","1557390801990","25","","Osnabrück","[]","Osnabrück","true","true","3111.5799999970477"
"","html-voicekey-response","110","626481","0.0-4.106-0.106","fybd97xfstv527g","{""user_agent"":""Mozilla/5.0 (Macintosh; Intel Mac OS X 10_14_4) AppleWebKit/537.36 (KHTML, like Gecko) Chrome/74.0.3729.131 Safari/537.36"",""on_chrome"":true,""on_mobile"":false,""language"":""en-US"",""screen_resolution"":[1440,900],""platform"":""MacIntel"",""timezone"":""Europe/Berlin""}","1","2087.210000006808","","","1557390805705","26","","Freiburg","[]","Freiburg","true","true","3029.7800000116695"
"","html-voicekey-response","111","629368","0.0-4.107-0.107","fybd97xfstv527g","{""user_agent"":""Mozilla/5.0 (Macintosh; Intel Mac OS X 10_14_4) AppleWebKit/537.36 (KHTML, like Gecko) Chrome/74.0.3729.131 Safari/537.36"",""on_chrome"":true,""on_mobile"":false,""language"":""en-US"",""screen_resolution"":[1440,900],""platform"":""MacIntel"",""timezone"":""Europe/Berlin""}","1","1390.8849999805448","","","1557390809342","25","","Osnabrück","[]","Osnabrück","true","false","2282.695000001695"
"","html-voicekey-response","112","632201","0.0-4.108-0.108","fybd97xfstv527g","{""user_agent"":""Mozilla/5.0 (Macintosh; Intel Mac OS X 10_14_4) AppleWebKit/537.36 (KHTML, like Gecko) Chrome/74.0.3729.131 Safari/537.36"",""on_chrome"":true,""on_mobile"":false,""language"":""en-US"",""screen_resolution"":[1440,900],""platform"":""MacIntel"",""timezone"":""Europe/Berlin""}","1","1303.9599999991246","","","1557390812229","26","","Freiburg","[]","Freiburg","true","false","2229.510000004666"
"","html-voicekey-response","113","635885","0.0-4.109-0.109","fybd97xfstv527g","{""user_agent"":""Mozilla/5.0 (Macintosh; Intel Mac OS X 10_14_4) AppleWebKit/537.36 (KHTML, like Gecko) Chrome/74.0.3729.131 Safari/537.36"",""on_chrome"":true,""on_mobile"":false,""language"":""en-US"",""screen_resolution"":[1440,900],""platform"":""MacIntel"",""timezone"":""Europe/Berlin""}","1","2353.784999993723","","","1557390815062","17","","Leipzig","[]","Leipzig","true","false","3079.0299999935087"
"","html-voicekey-response","114","640359","0.0-4.110-0.110","fybd97xfstv527g","{""user_agent"":""Mozilla/5.0 (Macintosh; Intel Mac OS X 10_14_4) AppleWebKit/537.36 (KHTML, like Gecko) Chrome/74.0.3729.131 Safari/537.36"",""on_chrome"":true,""on_mobile"":false,""language"":""en-US"",""screen_resolution"":[1440,900],""platform"":""MacIntel"",""timezone"":""Europe/Berlin""}","1","3410.6249999984634","","","1557390818746","3","","Ingolstadt","[]","Ingolstadt","true","false","3869.9049999995623"
"","html-voicekey-response","115","648659","0.0-4.111-0.111","fybd97xfstv527g","{""user_agent"":""Mozilla/5.0 (Macintosh; Intel Mac OS X 10_14_4) AppleWebKit/537.36 (KHTML, like Gecko) Chrome/74.0.3729.131 Safari/537.36"",""on_chrome"":true,""on_mobile"":false,""language"":""en-US"",""screen_resolution"":[1440,900],""platform"":""MacIntel"",""timezone"":""Europe/Berlin""}","1","Infinity","","","1557390823221","11","","Alfeld","[]","Alfeld","true","false","7695.384999999078"
"","html-voicekey-response","116","659633","0.0-4.112-0.112","fybd97xfstv527g","{""user_agent"":""Mozilla/5.0 (Macintosh; Intel Mac OS X 10_14_4) AppleWebKit/537.36 (KHTML, like Gecko) Chrome/74.0.3729.131 Safari/537.36"",""on_chrome"":true,""on_mobile"":false,""language"":""en-US"",""screen_resolution"":[1440,900],""platform"":""MacIntel"",""timezone"":""Europe/Berlin""}","1","4775.245000006025","","","1557390831523","13","","","[]","Chemnitz","false","false","6967.715000006137"
"","html-voicekey-response","117","662678","0.0-4.113-0.113","fybd97xfstv527g","{""user_agent"":""Mozilla/5.0 (Macintosh; Intel Mac OS X 10_14_4) AppleWebKit/537.36 (KHTML, like Gecko) Chrome/74.0.3729.131 Safari/537.36"",""on_chrome"":true,""on_mobile"":false,""language"":""en-US"",""screen_resolution"":[1440,900],""platform"":""MacIntel"",""timezone"":""Europe/Berlin""}","1","1786.7150000036695","","","1557390842495","12","","Dessau","[]","Dessau","true","false","2440.474999981234"
"","html-voicekey-response","118","666162","0.0-4.114-0.114","fybd97xfstv527g","{""user_agent"":""Mozilla/5.0 (Macintosh; Intel Mac OS X 10_14_4) AppleWebKit/537.36 (KHTML, like Gecko) Chrome/74.0.3729.131 Safari/537.36"",""on_chrome"":true,""on_mobile"":false,""language"":""en-US"",""screen_resolution"":[1440,900],""platform"":""MacIntel"",""timezone"":""Europe/Berlin""}","1","2368.319999988517","","","1557390845540","13","","Chemnitz","[]","Chemnitz","true","false","2877.9949999880046"
"","html-voicekey-response","119","669861","0.0-4.115-0.115","fybd97xfstv527g","{""user_agent"":""Mozilla/5.0 (Macintosh; Intel Mac OS X 10_14_4) AppleWebKit/537.36 (KHTML, like Gecko) Chrome/74.0.3729.131 Safari/537.36"",""on_chrome"":true,""on_mobile"":false,""language"":""en-US"",""screen_resolution"":[1440,900],""platform"":""MacIntel"",""timezone"":""Europe/Berlin""}","1","2069.1549999845215","","","1557390849023","27","","Tübingen","[]","Tübingen","true","true","3095.354999997653"
"","html-voicekey-response","120","676952","0.0-4.116-0.116","fybd97xfstv527g","{""user_agent"":""Mozilla/5.0 (Macintosh; Intel Mac OS X 10_14_4) AppleWebKit/537.36 (KHTML, like Gecko) Chrome/74.0.3729.131 Safari/537.36"",""on_chrome"":true,""on_mobile"":false,""language"":""en-US"",""screen_resolution"":[1440,900],""platform"":""MacIntel"",""timezone"":""Europe/Berlin""}","1","1668.6100000022911","","","1557390852723","21","","","[]","Konstanz","false","false","3085.879999998724"
"","html-voicekey-response","121","689352","0.0-4.117-0.117","fybd97xfstv527g","{""user_agent"":""Mozilla/5.0 (Macintosh; Intel Mac OS X 10_14_4) AppleWebKit/537.36 (KHTML, like Gecko) Chrome/74.0.3729.131 Safari/537.36"",""on_chrome"":true,""on_mobile"":false,""language"":""en-US"",""screen_resolution"":[1440,900],""platform"":""MacIntel"",""timezone"":""Europe/Berlin""}","1","135.57500000190922","","","1557390859814","27","","","[]","Tübingen","false","false","8394.839999993565"
"","html-voicekey-response","122","692347","0.0-4.118-0.118","fybd97xfstv527g","{""user_agent"":""Mozilla/5.0 (Macintosh; Intel Mac OS X 10_14_4) AppleWebKit/537.36 (KHTML, like Gecko) Chrome/74.0.3729.131 Safari/537.36"",""on_chrome"":true,""on_mobile"":false,""language"":""en-US"",""screen_resolution"":[1440,900],""platform"":""MacIntel"",""timezone"":""Europe/Berlin""}","1","1581.9850000060164","","","1557390872214","13","","Chemnitz","[]","Chemnitz","true","false","2389.67999999295"
"","html-voicekey-response","123","706496","0.0-4.119-0.119","fybd97xfstv527g","{""user_agent"":""Mozilla/5.0 (Macintosh; Intel Mac OS X 10_14_4) AppleWebKit/537.36 (KHTML, like Gecko) Chrome/74.0.3729.131 Safari/537.36"",""on_chrome"":true,""on_mobile"":false,""language"":""en-US"",""screen_resolution"":[1440,900],""platform"":""MacIntel"",""timezone"":""Europe/Berlin""}","1","9136.329999988293","","","1557390875209","25","","","[]","Osnabrück","false","false","10143.749999988358"
"","html-voicekey-response","124","713073","0.0-4.120-0.120","fybd97xfstv527g","{""user_agent"":""Mozilla/5.0 (Macintosh; Intel Mac OS X 10_14_4) AppleWebKit/537.36 (KHTML, like Gecko) Chrome/74.0.3729.131 Safari/537.36"",""on_chrome"":true,""on_mobile"":false,""language"":""en-US"",""screen_resolution"":[1440,900],""platform"":""MacIntel"",""timezone"":""Europe/Berlin""}","1","3696.619999982277","","","1557390889358","26","","Freiburg","[]","Freiburg","true","false","5972.024999995483"
"","html-voicekey-response","125","718247","0.0-4.121-0.121","fybd97xfstv527g","{""user_agent"":""Mozilla/5.0 (Macintosh; Intel Mac OS X 10_14_4) AppleWebKit/537.36 (KHTML, like Gecko) Chrome/74.0.3729.131 Safari/537.36"",""on_chrome"":true,""on_mobile"":false,""language"":""en-US"",""screen_resolution"":[1440,900],""platform"":""MacIntel"",""timezone"":""Europe/Berlin""}","1","3810.4649999966846","","","1557390895935","3","","Ingolstadt","[]","Ingolstadt","true","false","4569.144999986747"
"","html-voicekey-response","126","725547","0.0-4.122-0.122","fybd97xfstv527g","{""user_agent"":""Mozilla/5.0 (Macintosh; Intel Mac OS X 10_14_4) AppleWebKit/537.36 (KHTML, like Gecko) Chrome/74.0.3729.131 Safari/537.36"",""on_chrome"":true,""on_mobile"":false,""language"":""en-US"",""screen_resolution"":[1440,900],""platform"":""MacIntel"",""timezone"":""Europe/Berlin""}","1","1969.1149999942631","","","1557390901110","8","","","[]","Gotha","false","false","3294.1700000083074"
"","html-voicekey-response","127","729492","0.0-4.123-0.123","fybd97xfstv527g","{""user_agent"":""Mozilla/5.0 (Macintosh; Intel Mac OS X 10_14_4) AppleWebKit/537.36 (KHTML, like Gecko) Chrome/74.0.3729.131 Safari/537.36"",""on_chrome"":true,""on_mobile"":false,""language"":""en-US"",""screen_resolution"":[1440,900],""platform"":""MacIntel"",""timezone"":""Europe/Berlin""}","1","2469.000000020815","","","1557390908410","17","","Leipzig","[]","Leipzig","true","false","3340.0600000168197"
"","html-voicekey-response","128","740109","0.0-4.124-0.124","fybd97xfstv527g","{""user_agent"":""Mozilla/5.0 (Macintosh; Intel Mac OS X 10_14_4) AppleWebKit/537.36 (KHTML, like Gecko) Chrome/74.0.3729.131 Safari/537.36"",""on_chrome"":true,""on_mobile"":false,""language"":""en-US"",""screen_resolution"":[1440,900],""platform"":""MacIntel"",""timezone"":""Europe/Berlin""}","1","5851.420000000717","","","1557390912354","27","","","[]","Tübingen","false","false","6611.199999984819"
"","html-voicekey-response","129","750249","0.0-4.125-0.125","fybd97xfstv527g","{""user_agent"":""Mozilla/5.0 (Macintosh; Intel Mac OS X 10_14_4) AppleWebKit/537.36 (KHTML, like Gecko) Chrome/74.0.3729.131 Safari/537.36"",""on_chrome"":true,""on_mobile"":false,""language"":""en-US"",""screen_resolution"":[1440,900],""platform"":""MacIntel"",""timezone"":""Europe/Berlin""}","1","5243.049999998975","","","1557390922971","25","","","[]","Osnabrück","false","false","6135.19499998074"
"","html-voicekey-response","130","756220","0.0-4.126-0.126","fybd97xfstv527g","{""user_agent"":""Mozilla/5.0 (Macintosh; Intel Mac OS X 10_14_4) AppleWebKit/537.36 (KHTML, like Gecko) Chrome/74.0.3729.131 Safari/537.36"",""on_chrome"":true,""on_mobile"":false,""language"":""en-US"",""screen_resolution"":[1440,900],""platform"":""MacIntel"",""timezone"":""Europe/Berlin""}","1","2738.630000016047","","","1557390933113","26","","Freiburg","[]","Freiburg","true","false","5364.665000000969"
"","html-voicekey-response","131","759356","0.0-4.127-0.127","fybd97xfstv527g","{""user_agent"":""Mozilla/5.0 (Macintosh; Intel Mac OS X 10_14_4) AppleWebKit/537.36 (KHTML, like Gecko) Chrome/74.0.3729.131 Safari/537.36"",""on_chrome"":true,""on_mobile"":false,""language"":""en-US"",""screen_resolution"":[1440,900],""platform"":""MacIntel"",""timezone"":""Europe/Berlin""}","1","1836.1449999882375","","","1557390939083","13","","Chemnitz","[]","Chemnitz","true","false","2528.0299999867566"
"","html-voicekey-response","132","762277","0.0-4.128-0.128","fybd97xfstv527g","{""user_agent"":""Mozilla/5.0 (Macintosh; Intel Mac OS X 10_14_4) AppleWebKit/537.36 (KHTML, like Gecko) Chrome/74.0.3729.131 Safari/537.36"",""on_chrome"":true,""on_mobile"":false,""language"":""en-US"",""screen_resolution"":[1440,900],""platform"":""MacIntel"",""timezone"":""Europe/Berlin""}","1","1623.4349999957253","","","1557390942219","3","","Ingolstadt","[]","Ingolstadt","true","false","2315.2849999896716"
"","html-voicekey-response","133","765510","0.0-4.129-0.129","fybd97xfstv527g","{""user_agent"":""Mozilla/5.0 (Macintosh; Intel Mac OS X 10_14_4) AppleWebKit/537.36 (KHTML, like Gecko) Chrome/74.0.3729.131 Safari/537.36"",""on_chrome"":true,""on_mobile"":false,""language"":""en-US"",""screen_resolution"":[1440,900],""platform"":""MacIntel"",""timezone"":""Europe/Berlin""}","1","2051.1849999982865","","","1557390945141","15","","Nürnberg","[]","Nürnberg","true","false","2626.4049999881536"
"","html-voicekey-response","134","772744","0.0-4.130-0.130","fybd97xfstv527g","{""user_agent"":""Mozilla/5.0 (Macintosh; Intel Mac OS X 10_14_4) AppleWebKit/537.36 (KHTML, like Gecko) Chrome/74.0.3729.131 Safari/537.36"",""on_chrome"":true,""on_mobile"":false,""language"":""en-US"",""screen_resolution"":[1440,900],""platform"":""MacIntel"",""timezone"":""Europe/Berlin""}","1","1584.7750000046567","","","1557390948373","11","","","[]","Alfeld","false","false","3227.3799999966286"
"","html-voicekey-response","135","776955","0.0-4.131-0.131","fybd97xfstv527g","{""user_agent"":""Mozilla/5.0 (Macintosh; Intel Mac OS X 10_14_4) AppleWebKit/537.36 (KHTML, like Gecko) Chrome/74.0.3729.131 Safari/537.36"",""on_chrome"":true,""on_mobile"":false,""language"":""en-US"",""screen_resolution"":[1440,900],""platform"":""MacIntel"",""timezone"":""Europe/Berlin""}","1","1847.169999973476","","","1557390955607","16","","Schwangau","[]","Schwangau","true","false","3605.169999995269"
"","html-voicekey-response","136","782524","0.0-4.132-0.132","fybd97xfstv527g","{""user_agent"":""Mozilla/5.0 (Macintosh; Intel Mac OS X 10_14_4) AppleWebKit/537.36 (KHTML, like Gecko) Chrome/74.0.3729.131 Safari/537.36"",""on_chrome"":true,""on_mobile"":false,""language"":""en-US"",""screen_resolution"":[1440,900],""platform"":""MacIntel"",""timezone"":""Europe/Berlin""}","1","3751.765000002552","","","1557390959817","25","","Osnabrück","[]","Osnabrück","true","false","4961.890000005951"
"","html-voicekey-response","137","792062","0.0-4.133-0.133","fybd97xfstv527g","{""user_agent"":""Mozilla/5.0 (Macintosh; Intel Mac OS X 10_14_4) AppleWebKit/537.36 (KHTML, like Gecko) Chrome/74.0.3729.131 Safari/537.36"",""on_chrome"":true,""on_mobile"":false,""language"":""en-US"",""screen_resolution"":[1440,900],""platform"":""MacIntel"",""timezone"":""Europe/Berlin""}","1","4572.365000008931","","","1557390965388","18","","","[]","Forchheim","false","false","5530.985000019427"
"","html-voicekey-response","138","795702","0.0-4.134-0.134","fybd97xfstv527g","{""user_agent"":""Mozilla/5.0 (Macintosh; Intel Mac OS X 10_14_4) AppleWebKit/537.36 (KHTML, like Gecko) Chrome/74.0.3729.131 Safari/537.36"",""on_chrome"":true,""on_mobile"":false,""language"":""en-US"",""screen_resolution"":[1440,900],""platform"":""MacIntel"",""timezone"":""Europe/Berlin""}","1","2351.024999990687","","","1557390974926","27","","Tübingen","[]","Tübingen","true","false","3033.350000012433"
"","html-voicekey-response","139","798735","0.0-4.135-0.135","fybd97xfstv527g","{""user_agent"":""Mozilla/5.0 (Macintosh; Intel Mac OS X 10_14_4) AppleWebKit/537.36 (KHTML, like Gecko) Chrome/74.0.3729.131 Safari/537.36"",""on_chrome"":true,""on_mobile"":false,""language"":""en-US"",""screen_resolution"":[1440,900],""platform"":""MacIntel"",""timezone"":""Europe/Berlin""}","1","1550.7600000217558","","","1557390978566","21","","Konstanz","[]","Konstanz","true","false","2426.2049999961164"
"","html-voicekey-response","140","804170","0.0-4.136-0.136","fybd97xfstv527g","{""user_agent"":""Mozilla/5.0 (Macintosh; Intel Mac OS X 10_14_4) AppleWebKit/537.36 (KHTML, like Gecko) Chrome/74.0.3729.131 Safari/537.36"",""on_chrome"":true,""on_mobile"":false,""language"":""en-US"",""screen_resolution"":[1440,900],""platform"":""MacIntel"",""timezone"":""Europe/Berlin""}","1","4086.329999999935","","","1557390981598","25","","Osnabrück","[]","Osnabrück","true","false","4827.160000015283"
"","html-voicekey-response","141","807543","0.0-4.137-0.137","fybd97xfstv527g","{""user_agent"":""Mozilla/5.0 (Macintosh; Intel Mac OS X 10_14_4) AppleWebKit/537.36 (KHTML, like Gecko) Chrome/74.0.3729.131 Safari/537.36"",""on_chrome"":true,""on_mobile"":false,""language"":""en-US"",""screen_resolution"":[1440,900],""platform"":""MacIntel"",""timezone"":""Europe/Berlin""}","1","2173.4350000131876","","","1557390987034","19","","Frankfurt","[]","Frankfurt","true","false","2765.79999999376"
"","html-voicekey-response","142","810743","0.0-4.138-0.138","fybd97xfstv527g","{""user_agent"":""Mozilla/5.0 (Macintosh; Intel Mac OS X 10_14_4) AppleWebKit/537.36 (KHTML, like Gecko) Chrome/74.0.3729.131 Safari/537.36"",""on_chrome"":true,""on_mobile"":false,""language"":""en-US"",""screen_resolution"":[1440,900],""platform"":""MacIntel"",""timezone"":""Europe/Berlin""}","1","1718.5000000261703","","","1557390990406","26","","Freiburg","[]","Freiburg","true","false","2593.785000004573"
"","html-voicekey-response","143","813360","0.0-4.139-0.139","fybd97xfstv527g","{""user_agent"":""Mozilla/5.0 (Macintosh; Intel Mac OS X 10_14_4) AppleWebKit/537.36 (KHTML, like Gecko) Chrome/74.0.3729.131 Safari/537.36"",""on_chrome"":true,""on_mobile"":false,""language"":""en-US"",""screen_resolution"":[1440,900],""platform"":""MacIntel"",""timezone"":""Europe/Berlin""}","1","1352.0799999913202","","","1557390993606","20","","Hamburg ","[]","Hamburg ","true","false","2010.7349999889266"
"","html-voicekey-response","144","816788","0.0-4.140-0.140","fybd97xfstv527g","{""user_agent"":""Mozilla/5.0 (Macintosh; Intel Mac OS X 10_14_4) AppleWebKit/537.36 (KHTML, like Gecko) Chrome/74.0.3729.131 Safari/537.36"",""on_chrome"":true,""on_mobile"":false,""language"":""en-US"",""screen_resolution"":[1440,900],""platform"":""MacIntel"",""timezone"":""Europe/Berlin""}","1","2117.6300000023098","","","1557390996224","17","","Leipzig","[]","Leipzig","true","false","2821.7599999916274"
"","html-voicekey-response","145","821821","0.0-4.141-0.141","fybd97xfstv527g","{""user_agent"":""Mozilla/5.0 (Macintosh; Intel Mac OS X 10_14_4) AppleWebKit/537.36 (KHTML, like Gecko) Chrome/74.0.3729.131 Safari/537.36"",""on_chrome"":true,""on_mobile"":false,""language"":""en-US"",""screen_resolution"":[1440,900],""platform"":""MacIntel"",""timezone"":""Europe/Berlin""}","1","3983.3999999771827","","","1557390999652","22","","Bamberg","[]","Bamberg","true","false","4425.984999979846"
"","html-voicekey-response","146","825441","0.0-4.142-0.142","fybd97xfstv527g","{""user_agent"":""Mozilla/5.0 (Macintosh; Intel Mac OS X 10_14_4) AppleWebKit/537.36 (KHTML, like Gecko) Chrome/74.0.3729.131 Safari/537.36"",""on_chrome"":true,""on_mobile"":false,""language"":""en-US"",""screen_resolution"":[1440,900],""platform"":""MacIntel"",""timezone"":""Europe/Berlin""}","1","2234.825000001211","","","1557391004685","3","","Ingolstadt","[]","Ingolstadt","true","false","3010.409999988042"
"","html-voicekey-response","147","829628","0.0-4.143-0.143","fybd97xfstv527g","{""user_agent"":""Mozilla/5.0 (Macintosh; Intel Mac OS X 10_14_4) AppleWebKit/537.36 (KHTML, like Gecko) Chrome/74.0.3729.131 Safari/537.36"",""on_chrome"":true,""on_mobile"":false,""language"":""en-US"",""screen_resolution"":[1440,900],""platform"":""MacIntel"",""timezone"":""Europe/Berlin""}","1","2387.6749999852386","","","1557391008305","28","","Regensburg","[]","Regensburg","true","true","3580.389999988256"
"","html-voicekey-response","148","832828","0.0-4.144-0.144","fybd97xfstv527g","{""user_agent"":""Mozilla/5.0 (Macintosh; Intel Mac OS X 10_14_4) AppleWebKit/537.36 (KHTML, like Gecko) Chrome/74.0.3729.131 Safari/537.36"",""on_chrome"":true,""on_mobile"":false,""language"":""en-US"",""screen_resolution"":[1440,900],""platform"":""MacIntel"",""timezone"":""Europe/Berlin""}","1","1985.0349999995437","","","1557391012491","23","","Stuttgart","[]","Stuttgart","true","false","2593.3899999945424"
"","html-voicekey-response","149","835881","0.0-4.145-0.145","fybd97xfstv527g","{""user_agent"":""Mozilla/5.0 (Macintosh; Intel Mac OS X 10_14_4) AppleWebKit/537.36 (KHTML, like Gecko) Chrome/74.0.3729.131 Safari/537.36"",""on_chrome"":true,""on_mobile"":false,""language"":""en-US"",""screen_resolution"":[1440,900],""platform"":""MacIntel"",""timezone"":""Europe/Berlin""}","1","1417.584999997262","","","1557391015692","28","","Regensburg","[]","Regensburg","true","false","2443.984999990789"
"","html-voicekey-response","150","838834","0.0-4.146-0.146","fybd97xfstv527g","{""user_agent"":""Mozilla/5.0 (Macintosh; Intel Mac OS X 10_14_4) AppleWebKit/537.36 (KHTML, like Gecko) Chrome/74.0.3729.131 Safari/537.36"",""on_chrome"":true,""on_mobile"":false,""language"":""en-US"",""screen_resolution"":[1440,900],""platform"":""MacIntel"",""timezone"":""Europe/Berlin""}","1","1788.7800000115299","","","1557391018744","25","","Osnabrück","[]","Osnabrück","true","false","2347.7200000197627"
"","html-voicekey-response","151","843034","0.0-4.147-0.147","fybd97xfstv527g","{""user_agent"":""Mozilla/5.0 (Macintosh; Intel Mac OS X 10_14_4) AppleWebKit/537.36 (KHTML, like Gecko) Chrome/74.0.3729.131 Safari/537.36"",""on_chrome"":true,""on_mobile"":false,""language"":""en-US"",""screen_resolution"":[1440,900],""platform"":""MacIntel"",""timezone"":""Europe/Berlin""}","1","100","","","1557391021698","18","","Forchheim","[]","Forchheim","true","false","3593.0999999982305"
"","html-voicekey-response","152","852853","0.0-4.148-0.148","fybd97xfstv527g","{""user_agent"":""Mozilla/5.0 (Macintosh; Intel Mac OS X 10_14_4) AppleWebKit/537.36 (KHTML, like Gecko) Chrome/74.0.3729.131 Safari/537.36"",""on_chrome"":true,""on_mobile"":false,""language"":""en-US"",""screen_resolution"":[1440,900],""platform"":""MacIntel"",""timezone"":""Europe/Berlin""}","1","4901.159999988367","","","1557391025898","8","","","[]","Gotha","false","false","5810.299999982817"
