"value","trial_type","trial_index","time_elapsed","internal_node_id","subject","browser_info","participant_number","rt","responses","view_history","presentation_start_time","id","text","response","keypresses","answer","correct","study","experimenter_rt"
"","call-function","0","3","0.0-0.0","dgazn7r6sxfuvau","{""user_agent"":""Mozilla/5.0 (Macintosh; Intel Mac OS X 10_14_4) AppleWebKit/537.36 (KHTML, like Gecko) Chrome/74.0.3729.131 Safari/537.36"",""on_chrome"":true,""on_mobile"":false,""language"":""en-US"",""screen_resolution"":[1440,900],""platform"":""MacIntel"",""timezone"":""Europe/Berlin""}","10","","","","","","","","","","","",""
"","survey-text","1","9914","0.0-1.0","dgazn7r6sxfuvau","{""user_agent"":""Mozilla/5.0 (Macintosh; Intel Mac OS X 10_14_4) AppleWebKit/537.36 (KHTML, like Gecko) Chrome/74.0.3729.131 Safari/537.36"",""on_chrome"":true,""on_mobile"":false,""language"":""en-US"",""screen_resolution"":[1440,900],""platform"":""MacIntel"",""timezone"":""Europe/Berlin""}","10","9908","{""Q0"":""10""}","","","","","","","","","",""
"","instructions","2","141324","0.0-2.0","dgazn7r6sxfuvau","{""user_agent"":""Mozilla/5.0 (Macintosh; Intel Mac OS X 10_14_4) AppleWebKit/537.36 (KHTML, like Gecko) Chrome/74.0.3729.131 Safari/537.36"",""on_chrome"":true,""on_mobile"":false,""language"":""en-US"",""screen_resolution"":[1440,900],""platform"":""MacIntel"",""timezone"":""Europe/Berlin""}","10","131408","","[{""page_index"":0,""viewing_time"":131407}]","","","","","","","","",""
"","call-function","3","141324","0.0-3.0","dgazn7r6sxfuvau","{""user_agent"":""Mozilla/5.0 (Macintosh; Intel Mac OS X 10_14_4) AppleWebKit/537.36 (KHTML, like Gecko) Chrome/74.0.3729.131 Safari/537.36"",""on_chrome"":true,""on_mobile"":false,""language"":""en-US"",""screen_resolution"":[1440,900],""platform"":""MacIntel"",""timezone"":""Europe/Berlin""}","10","","","","","","","","","","","",""
"","html-voicekey-response","4","146120","0.0-4.0-0.0","dgazn7r6sxfuvau","{""user_agent"":""Mozilla/5.0 (Macintosh; Intel Mac OS X 10_14_4) AppleWebKit/537.36 (KHTML, like Gecko) Chrome/74.0.3729.131 Safari/537.36"",""on_chrome"":true,""on_mobile"":false,""language"":""en-US"",""screen_resolution"":[1440,900],""platform"":""MacIntel"",""timezone"":""Europe/Berlin""}","10","2940.0450000010374","","","1558013833965","1","","Magdeburg","[]","Magdeburg","true","true","4191.355000002659"
"","html-voicekey-response","5","150919","0.0-4.1-0.1","dgazn7r6sxfuvau","{""user_agent"":""Mozilla/5.0 (Macintosh; Intel Mac OS X 10_14_4) AppleWebKit/537.36 (KHTML, like Gecko) Chrome/74.0.3729.131 Safari/537.36"",""on_chrome"":true,""on_mobile"":false,""language"":""en-US"",""screen_resolution"":[1440,900],""platform"":""MacIntel"",""timezone"":""Europe/Berlin""}","10","3185.4199999996404","","","1558013838762","1","","Magdeburg","[]","Magdeburg","true","false","4194.494999999733"
"","html-voicekey-response","6","155019","0.0-4.2-0.2","dgazn7r6sxfuvau","{""user_agent"":""Mozilla/5.0 (Macintosh; Intel Mac OS X 10_14_4) AppleWebKit/537.36 (KHTML, like Gecko) Chrome/74.0.3729.131 Safari/537.36"",""on_chrome"":true,""on_mobile"":false,""language"":""en-US"",""screen_resolution"":[1440,900],""platform"":""MacIntel"",""timezone"":""Europe/Berlin""}","10","2471.6300000016695","","","1558013843559","2","","Berlin","[]","Berlin","true","true","3497.6750000023458"
"","html-voicekey-response","7","158326","0.0-4.3-0.3","dgazn7r6sxfuvau","{""user_agent"":""Mozilla/5.0 (Macintosh; Intel Mac OS X 10_14_4) AppleWebKit/537.36 (KHTML, like Gecko) Chrome/74.0.3729.131 Safari/537.36"",""on_chrome"":true,""on_mobile"":false,""language"":""en-US"",""screen_resolution"":[1440,900],""platform"":""MacIntel"",""timezone"":""Europe/Berlin""}","10","1813.9249999965891","","","1558013847659","2","","Berlin","[]","Berlin","true","false","2705.95499999763"
"","html-voicekey-response","8","162277","0.0-4.4-0.4","dgazn7r6sxfuvau","{""user_agent"":""Mozilla/5.0 (Macintosh; Intel Mac OS X 10_14_4) AppleWebKit/537.36 (KHTML, like Gecko) Chrome/74.0.3729.131 Safari/537.36"",""on_chrome"":true,""on_mobile"":false,""language"":""en-US"",""screen_resolution"":[1440,900],""platform"":""MacIntel"",""timezone"":""Europe/Berlin""}","10","1739.6949999982376","","","1558013850966","3","","Ingolstadt","[]","Ingolstadt","true","true","3348.3649999980116"
"","html-voicekey-response","9","166377","0.0-4.5-0.5","dgazn7r6sxfuvau","{""user_agent"":""Mozilla/5.0 (Macintosh; Intel Mac OS X 10_14_4) AppleWebKit/537.36 (KHTML, like Gecko) Chrome/74.0.3729.131 Safari/537.36"",""on_chrome"":true,""on_mobile"":false,""language"":""en-US"",""screen_resolution"":[1440,900],""platform"":""MacIntel"",""timezone"":""Europe/Berlin""}","10","1738.6649999987917","","","1558013854917","4","","Würzburg","[]","Würzburg","true","true","3497.204999999667"
"","html-voicekey-response","10","173734","0.0-4.6-0.6","dgazn7r6sxfuvau","{""user_agent"":""Mozilla/5.0 (Macintosh; Intel Mac OS X 10_14_4) AppleWebKit/537.36 (KHTML, like Gecko) Chrome/74.0.3729.131 Safari/537.36"",""on_chrome"":true,""on_mobile"":false,""language"":""en-US"",""screen_resolution"":[1440,900],""platform"":""MacIntel"",""timezone"":""Europe/Berlin""}","10","5212.980000001908","","","1558013859017","3","","Ingolstadt","[]","Ingolstadt","true","false","6754.820000001928"
"","html-voicekey-response","11","177718","0.0-4.7-0.7","dgazn7r6sxfuvau","{""user_agent"":""Mozilla/5.0 (Macintosh; Intel Mac OS X 10_14_4) AppleWebKit/537.36 (KHTML, like Gecko) Chrome/74.0.3729.131 Safari/537.36"",""on_chrome"":true,""on_mobile"":false,""language"":""en-US"",""screen_resolution"":[1440,900],""platform"":""MacIntel"",""timezone"":""Europe/Berlin""}","10","1921.295000001765","","","1558013866374","4","","Würzburg","[]","Würzburg","true","false","3380.7850000011967"
"","html-voicekey-response","12","181527","0.0-4.8-0.8","dgazn7r6sxfuvau","{""user_agent"":""Mozilla/5.0 (Macintosh; Intel Mac OS X 10_14_4) AppleWebKit/537.36 (KHTML, like Gecko) Chrome/74.0.3729.131 Safari/537.36"",""on_chrome"":true,""on_mobile"":false,""language"":""en-US"",""screen_resolution"":[1440,900],""platform"":""MacIntel"",""timezone"":""Europe/Berlin""}","10","2383.5149999993796","","","1558013870358","5","","Aachen","[]","Aachen","true","true","3207.2750000006636"
"","html-voicekey-response","13","185361","0.0-4.9-0.9","dgazn7r6sxfuvau","{""user_agent"":""Mozilla/5.0 (Macintosh; Intel Mac OS X 10_14_4) AppleWebKit/537.36 (KHTML, like Gecko) Chrome/74.0.3729.131 Safari/537.36"",""on_chrome"":true,""on_mobile"":false,""language"":""en-US"",""screen_resolution"":[1440,900],""platform"":""MacIntel"",""timezone"":""Europe/Berlin""}","10","1539.919999997283","","","1558013874167","6","","Dresden","[]","Dresden","true","true","3231.6199999986566"
"","html-voicekey-response","14","190929","0.0-4.10-0.10","dgazn7r6sxfuvau","{""user_agent"":""Mozilla/5.0 (Macintosh; Intel Mac OS X 10_14_4) AppleWebKit/537.36 (KHTML, like Gecko) Chrome/74.0.3729.131 Safari/537.36"",""on_chrome"":true,""on_mobile"":false,""language"":""en-US"",""screen_resolution"":[1440,900],""platform"":""MacIntel"",""timezone"":""Europe/Berlin""}","10","4205.715000001719","","","1558013878001","5","","Aachen","[]","Aachen","true","false","4964.680000000953"
"","html-voicekey-response","15","200986","0.0-4.11-0.11","dgazn7r6sxfuvau","{""user_agent"":""Mozilla/5.0 (Macintosh; Intel Mac OS X 10_14_4) AppleWebKit/537.36 (KHTML, like Gecko) Chrome/74.0.3729.131 Safari/537.36"",""on_chrome"":true,""on_mobile"":false,""language"":""en-US"",""screen_resolution"":[1440,900],""platform"":""MacIntel"",""timezone"":""Europe/Berlin""}","10","4229.014999998826","","","1558013883569","6","","","[]","Dresden","false","false","6054.979999997158"
"","html-voicekey-response","16","203997","0.0-4.12-0.12","dgazn7r6sxfuvau","{""user_agent"":""Mozilla/5.0 (Macintosh; Intel Mac OS X 10_14_4) AppleWebKit/537.36 (KHTML, like Gecko) Chrome/74.0.3729.131 Safari/537.36"",""on_chrome"":true,""on_mobile"":false,""language"":""en-US"",""screen_resolution"":[1440,900],""platform"":""MacIntel"",""timezone"":""Europe/Berlin""}","10","1472.2600000003063","","","1558013893626","1","","Magdeburg","[]","Magdeburg","true","false","2409.1950000001816"
"","html-voicekey-response","17","207329","0.0-4.13-0.13","dgazn7r6sxfuvau","{""user_agent"":""Mozilla/5.0 (Macintosh; Intel Mac OS X 10_14_4) AppleWebKit/537.36 (KHTML, like Gecko) Chrome/74.0.3729.131 Safari/537.36"",""on_chrome"":true,""on_mobile"":false,""language"":""en-US"",""screen_resolution"":[1440,900],""platform"":""MacIntel"",""timezone"":""Europe/Berlin""}","10","1654.2849999985542","","","1558013896638","2","","Berlin","[]","Berlin","true","false","2729.21999999744"
"","html-voicekey-response","18","211179","0.0-4.14-0.14","dgazn7r6sxfuvau","{""user_agent"":""Mozilla/5.0 (Macintosh; Intel Mac OS X 10_14_4) AppleWebKit/537.36 (KHTML, like Gecko) Chrome/74.0.3729.131 Safari/537.36"",""on_chrome"":true,""on_mobile"":false,""language"":""en-US"",""screen_resolution"":[1440,900],""platform"":""MacIntel"",""timezone"":""Europe/Berlin""}","10","1888.9900000011316","","","1558013899969","7","","Erfurt","[]","Erfurt","true","true","3247.654999999213"
"","html-voicekey-response","19","214603","0.0-4.15-0.15","dgazn7r6sxfuvau","{""user_agent"":""Mozilla/5.0 (Macintosh; Intel Mac OS X 10_14_4) AppleWebKit/537.36 (KHTML, like Gecko) Chrome/74.0.3729.131 Safari/537.36"",""on_chrome"":true,""on_mobile"":false,""language"":""en-US"",""screen_resolution"":[1440,900],""platform"":""MacIntel"",""timezone"":""Europe/Berlin""}","10","1606.2850000033272","","","1558013903819","8","","Gotha","[]","Gotha","true","true","2821.2149999999383"
"","html-voicekey-response","20","225705","0.0-4.16-0.16","dgazn7r6sxfuvau","{""user_agent"":""Mozilla/5.0 (Macintosh; Intel Mac OS X 10_14_4) AppleWebKit/537.36 (KHTML, like Gecko) Chrome/74.0.3729.131 Safari/537.36"",""on_chrome"":true,""on_mobile"":false,""language"":""en-US"",""screen_resolution"":[1440,900],""platform"":""MacIntel"",""timezone"":""Europe/Berlin""}","10","9738.88500000051","","","1558013907243","7","","Erfurt","[]","Erfurt","true","false","10497.715000001335"
"","html-voicekey-response","21","235544","0.0-4.17-0.17","dgazn7r6sxfuvau","{""user_agent"":""Mozilla/5.0 (Macintosh; Intel Mac OS X 10_14_4) AppleWebKit/537.36 (KHTML, like Gecko) Chrome/74.0.3729.131 Safari/537.36"",""on_chrome"":true,""on_mobile"":false,""language"":""en-US"",""screen_resolution"":[1440,900],""platform"":""MacIntel"",""timezone"":""Europe/Berlin""}","10","4361.404999997676","","","1558013918345","8","","","[]","Gotha","false","false","5836.475000000064"
"","html-voicekey-response","22","248104","0.0-4.18-0.18","dgazn7r6sxfuvau","{""user_agent"":""Mozilla/5.0 (Macintosh; Intel Mac OS X 10_14_4) AppleWebKit/537.36 (KHTML, like Gecko) Chrome/74.0.3729.131 Safari/537.36"",""on_chrome"":true,""on_mobile"":false,""language"":""en-US"",""screen_resolution"":[1440,900],""platform"":""MacIntel"",""timezone"":""Europe/Berlin""}","10","7704.800000001187","","","1558013928184","3","","","[]","Ingolstadt","false","false","8558.645000000979"
"","html-voicekey-response","23","260663","0.0-4.19-0.19","dgazn7r6sxfuvau","{""user_agent"":""Mozilla/5.0 (Macintosh; Intel Mac OS X 10_14_4) AppleWebKit/537.36 (KHTML, like Gecko) Chrome/74.0.3729.131 Safari/537.36"",""on_chrome"":true,""on_mobile"":false,""language"":""en-US"",""screen_resolution"":[1440,900],""platform"":""MacIntel"",""timezone"":""Europe/Berlin""}","10","7322.150000001629","","","1558013940745","4","","","[]","Würzburg","false","false","8555.889999999636"
"","html-voicekey-response","24","273158","0.0-4.20-0.20","dgazn7r6sxfuvau","{""user_agent"":""Mozilla/5.0 (Macintosh; Intel Mac OS X 10_14_4) AppleWebKit/537.36 (KHTML, like Gecko) Chrome/74.0.3729.131 Safari/537.36"",""on_chrome"":true,""on_mobile"":false,""language"":""en-US"",""screen_resolution"":[1440,900],""platform"":""MacIntel"",""timezone"":""Europe/Berlin""}","10","7671.625000000704","","","1558013953303","5","","","[]","Aachen","false","false","8492.795000001934"
"","html-voicekey-response","25","276565","0.0-4.21-0.21","dgazn7r6sxfuvau","{""user_agent"":""Mozilla/5.0 (Macintosh; Intel Mac OS X 10_14_4) AppleWebKit/537.36 (KHTML, like Gecko) Chrome/74.0.3729.131 Safari/537.36"",""on_chrome"":true,""on_mobile"":false,""language"":""en-US"",""screen_resolution"":[1440,900],""platform"":""MacIntel"",""timezone"":""Europe/Berlin""}","10","1837.7500000004425","","","1558013965799","6","","Dresden","[]","Dresden","true","false","2804.1049999992247"
"","html-voicekey-response","26","282815","0.0-4.22-0.22","dgazn7r6sxfuvau","{""user_agent"":""Mozilla/5.0 (Macintosh; Intel Mac OS X 10_14_4) AppleWebKit/537.36 (KHTML, like Gecko) Chrome/74.0.3729.131 Safari/537.36"",""on_chrome"":true,""on_mobile"":false,""language"":""en-US"",""screen_resolution"":[1440,900],""platform"":""MacIntel"",""timezone"":""Europe/Berlin""}","10","4638.444999998528","","","1558013969206","7","","Erfurt","[]","Erfurt","true","false","5646.785000000789"
"","html-voicekey-response","27","292983","0.0-4.23-0.23","dgazn7r6sxfuvau","{""user_agent"":""Mozilla/5.0 (Macintosh; Intel Mac OS X 10_14_4) AppleWebKit/537.36 (KHTML, like Gecko) Chrome/74.0.3729.131 Safari/537.36"",""on_chrome"":true,""on_mobile"":false,""language"":""en-US"",""screen_resolution"":[1440,900],""platform"":""MacIntel"",""timezone"":""Europe/Berlin""}","10","4737.610000001825","","","1558013975456","3","","","[]","Ingolstadt","false","false","6163.01999999996"
"","html-voicekey-response","28","305113","0.0-4.24-0.24","dgazn7r6sxfuvau","{""user_agent"":""Mozilla/5.0 (Macintosh; Intel Mac OS X 10_14_4) AppleWebKit/537.36 (KHTML, like Gecko) Chrome/74.0.3729.131 Safari/537.36"",""on_chrome"":true,""on_mobile"":false,""language"":""en-US"",""screen_resolution"":[1440,900],""platform"":""MacIntel"",""timezone"":""Europe/Berlin""}","10","6529.199999998882","","","1558013985625","8","","","[]","Gotha","false","false","8122.354999999516"
"","html-voicekey-response","29","314766","0.0-4.25-0.25","dgazn7r6sxfuvau","{""user_agent"":""Mozilla/5.0 (Macintosh; Intel Mac OS X 10_14_4) AppleWebKit/537.36 (KHTML, like Gecko) Chrome/74.0.3729.131 Safari/537.36"",""on_chrome"":true,""on_mobile"":false,""language"":""en-US"",""screen_resolution"":[1440,900],""platform"":""MacIntel"",""timezone"":""Europe/Berlin""}","10","4108.995000000379","","","1558013997754","4","","","[]","Würzburg","false","false","5649.4150000034715"
"","html-voicekey-response","30","320946","0.0-4.26-0.26","dgazn7r6sxfuvau","{""user_agent"":""Mozilla/5.0 (Macintosh; Intel Mac OS X 10_14_4) AppleWebKit/537.36 (KHTML, like Gecko) Chrome/74.0.3729.131 Safari/537.36"",""on_chrome"":true,""on_mobile"":false,""language"":""en-US"",""screen_resolution"":[1440,900],""platform"":""MacIntel"",""timezone"":""Europe/Berlin""}","10","4968.399999999534","","","1558014007407","5","","Aachen","[]","Aachen","true","false","5577.3950000002515"
"","html-voicekey-response","31","324786","0.0-4.27-0.27","dgazn7r6sxfuvau","{""user_agent"":""Mozilla/5.0 (Macintosh; Intel Mac OS X 10_14_4) AppleWebKit/537.36 (KHTML, like Gecko) Chrome/74.0.3729.131 Safari/537.36"",""on_chrome"":true,""on_mobile"":false,""language"":""en-US"",""screen_resolution"":[1440,900],""platform"":""MacIntel"",""timezone"":""Europe/Berlin""}","10","2488.4599999985426","","","1558014013587","3","","Ingolstadt","[]","Ingolstadt","true","false","3237.794999997306"
"","html-voicekey-response","32","328254","0.0-4.28-0.28","dgazn7r6sxfuvau","{""user_agent"":""Mozilla/5.0 (Macintosh; Intel Mac OS X 10_14_4) AppleWebKit/537.36 (KHTML, like Gecko) Chrome/74.0.3729.131 Safari/537.36"",""on_chrome"":true,""on_mobile"":false,""language"":""en-US"",""screen_resolution"":[1440,900],""platform"":""MacIntel"",""timezone"":""Europe/Berlin""}","10","2203.520000000752","","","1558014017429","7","","Erfurt","[]","Erfurt","true","false","2862.765000001644"
"","html-voicekey-response","33","331004","0.0-4.29-0.29","dgazn7r6sxfuvau","{""user_agent"":""Mozilla/5.0 (Macintosh; Intel Mac OS X 10_14_4) AppleWebKit/537.36 (KHTML, like Gecko) Chrome/74.0.3729.131 Safari/537.36"",""on_chrome"":true,""on_mobile"":false,""language"":""en-US"",""screen_resolution"":[1440,900],""platform"":""MacIntel"",""timezone"":""Europe/Berlin""}","10","1388.3150000018418","","","1558014020895","9","","München","[]","München","true","true","2147.2300000023097"
"","html-voicekey-response","34","334694","0.0-4.30-0.30","dgazn7r6sxfuvau","{""user_agent"":""Mozilla/5.0 (Macintosh; Intel Mac OS X 10_14_4) AppleWebKit/537.36 (KHTML, like Gecko) Chrome/74.0.3729.131 Safari/537.36"",""on_chrome"":true,""on_mobile"":false,""language"":""en-US"",""screen_resolution"":[1440,900],""platform"":""MacIntel"",""timezone"":""Europe/Berlin""}","10","1870.8749999985216","","","1558014023645","10","","Heidelberg","[]","Heidelberg","true","true","3087.0099999992526"
"","html-voicekey-response","35","346563","0.0-4.31-0.31","dgazn7r6sxfuvau","{""user_agent"":""Mozilla/5.0 (Macintosh; Intel Mac OS X 10_14_4) AppleWebKit/537.36 (KHTML, like Gecko) Chrome/74.0.3729.131 Safari/537.36"",""on_chrome"":true,""on_mobile"":false,""language"":""en-US"",""screen_resolution"":[1440,900],""platform"":""MacIntel"",""timezone"":""Europe/Berlin""}","10","7036.980000002402","","","1558014027336","9","","","[]","München","false","false","7862.880000000587"
"","html-voicekey-response","36","375469","0.0-4.32-0.32","dgazn7r6sxfuvau","{""user_agent"":""Mozilla/5.0 (Macintosh; Intel Mac OS X 10_14_4) AppleWebKit/537.36 (KHTML, like Gecko) Chrome/74.0.3729.131 Safari/537.36"",""on_chrome"":true,""on_mobile"":false,""language"":""en-US"",""screen_resolution"":[1440,900],""platform"":""MacIntel"",""timezone"":""Europe/Berlin""}","10","24192.815000000155","","","1558014039204","10","","","[]","Heidelberg","false","false","24901.50999999966"
"","html-voicekey-response","37","382642","0.0-4.33-0.33","dgazn7r6sxfuvau","{""user_agent"":""Mozilla/5.0 (Macintosh; Intel Mac OS X 10_14_4) AppleWebKit/537.36 (KHTML, like Gecko) Chrome/74.0.3729.131 Safari/537.36"",""on_chrome"":true,""on_mobile"":false,""language"":""en-US"",""screen_resolution"":[1440,900],""platform"":""MacIntel"",""timezone"":""Europe/Berlin""}","10","2210.1750000017696","","","1558014068111","5","","","[]","Aachen","false","false","3169.1500000015367"
"","html-voicekey-response","38","392383","0.0-4.34-0.34","dgazn7r6sxfuvau","{""user_agent"":""Mozilla/5.0 (Macintosh; Intel Mac OS X 10_14_4) AppleWebKit/537.36 (KHTML, like Gecko) Chrome/74.0.3729.131 Safari/537.36"",""on_chrome"":true,""on_mobile"":false,""language"":""en-US"",""screen_resolution"":[1440,900],""platform"":""MacIntel"",""timezone"":""Europe/Berlin""}","10","3955.199999998417","","","1558014075282","4","","","[]","Würzburg","false","false","5738.714999999502"
"","html-voicekey-response","39","399566","0.0-4.35-0.35","dgazn7r6sxfuvau","{""user_agent"":""Mozilla/5.0 (Macintosh; Intel Mac OS X 10_14_4) AppleWebKit/537.36 (KHTML, like Gecko) Chrome/74.0.3729.131 Safari/537.36"",""on_chrome"":true,""on_mobile"":false,""language"":""en-US"",""screen_resolution"":[1440,900],""platform"":""MacIntel"",""timezone"":""Europe/Berlin""}","10","2104.0950000004727","","","1558014085025","8","","","[]","Gotha","false","false","3179.1699999994016"
"","html-voicekey-response","40","402107","0.0-4.36-0.36","dgazn7r6sxfuvau","{""user_agent"":""Mozilla/5.0 (Macintosh; Intel Mac OS X 10_14_4) AppleWebKit/537.36 (KHTML, like Gecko) Chrome/74.0.3729.131 Safari/537.36"",""on_chrome"":true,""on_mobile"":false,""language"":""en-US"",""screen_resolution"":[1440,900],""platform"":""MacIntel"",""timezone"":""Europe/Berlin""}","10","1280.5099999985891","","","1558014092207","9","","München","[]","München","true","false","1939.0149999999558"
"","html-voicekey-response","41","415574","0.0-4.37-0.37","dgazn7r6sxfuvau","{""user_agent"":""Mozilla/5.0 (Macintosh; Intel Mac OS X 10_14_4) AppleWebKit/537.36 (KHTML, like Gecko) Chrome/74.0.3729.131 Safari/537.36"",""on_chrome"":true,""on_mobile"":false,""language"":""en-US"",""screen_resolution"":[1440,900],""platform"":""MacIntel"",""timezone"":""Europe/Berlin""}","10","8104.600000000419","","","1558014094748","5","","","[]","Aachen","false","false","9463.540000000678"
"","html-voicekey-response","42","423987","0.0-4.38-0.38","dgazn7r6sxfuvau","{""user_agent"":""Mozilla/5.0 (Macintosh; Intel Mac OS X 10_14_4) AppleWebKit/537.36 (KHTML, like Gecko) Chrome/74.0.3729.131 Safari/537.36"",""on_chrome"":true,""on_mobile"":false,""language"":""en-US"",""screen_resolution"":[1440,900],""platform"":""MacIntel"",""timezone"":""Europe/Berlin""}","10","2385.0299999993063","","","1558014108215","4","","","[]","Würzburg","false","false","4410.23999999743"
"","html-voicekey-response","43","431430","0.0-4.39-0.39","dgazn7r6sxfuvau","{""user_agent"":""Mozilla/5.0 (Macintosh; Intel Mac OS X 10_14_4) AppleWebKit/537.36 (KHTML, like Gecko) Chrome/74.0.3729.131 Safari/537.36"",""on_chrome"":true,""on_mobile"":false,""language"":""en-US"",""screen_resolution"":[1440,900],""platform"":""MacIntel"",""timezone"":""Europe/Berlin""}","10","1622.5399999983842","","","1558014116628","3","","","[]","Ingolstadt","false","false","3439.459999997809"
"","html-voicekey-response","44","445778","0.0-4.40-0.40","dgazn7r6sxfuvau","{""user_agent"":""Mozilla/5.0 (Macintosh; Intel Mac OS X 10_14_4) AppleWebKit/537.36 (KHTML, like Gecko) Chrome/74.0.3729.131 Safari/537.36"",""on_chrome"":true,""on_mobile"":false,""language"":""en-US"",""screen_resolution"":[1440,900],""platform"":""MacIntel"",""timezone"":""Europe/Berlin""}","10","9220.380000000505","","","1558014124071","10","","","[]","Heidelberg","false","false","10345.785000001371"
"","html-voicekey-response","45","457879","0.0-4.41-0.41","dgazn7r6sxfuvau","{""user_agent"":""Mozilla/5.0 (Macintosh; Intel Mac OS X 10_14_4) AppleWebKit/537.36 (KHTML, like Gecko) Chrome/74.0.3729.131 Safari/537.36"",""on_chrome"":true,""on_mobile"":false,""language"":""en-US"",""screen_resolution"":[1440,900],""platform"":""MacIntel"",""timezone"":""Europe/Berlin""}","10","6783.180000000202","","","1558014138425","8","","","[]","Gotha","false","false","8091.614999997546"
"","html-voicekey-response","46","466086","0.0-4.42-0.42","dgazn7r6sxfuvau","{""user_agent"":""Mozilla/5.0 (Macintosh; Intel Mac OS X 10_14_4) AppleWebKit/537.36 (KHTML, like Gecko) Chrome/74.0.3729.131 Safari/537.36"",""on_chrome"":true,""on_mobile"":false,""language"":""en-US"",""screen_resolution"":[1440,900],""platform"":""MacIntel"",""timezone"":""Europe/Berlin""}","10","3244.1149999993854","","","1558014150522","3","","","[]","Ingolstadt","false","false","4202.554999999877"
"","html-voicekey-response","47","482089","0.0-4.43-0.43","dgazn7r6sxfuvau","{""user_agent"":""Mozilla/5.0 (Macintosh; Intel Mac OS X 10_14_4) AppleWebKit/537.36 (KHTML, like Gecko) Chrome/74.0.3729.131 Safari/537.36"",""on_chrome"":true,""on_mobile"":false,""language"":""en-US"",""screen_resolution"":[1440,900],""platform"":""MacIntel"",""timezone"":""Europe/Berlin""}","10","10851.219999998551","","","1558014158730","7","","","[]","Erfurt","false","false","11996.42500000121"
"","html-voicekey-response","48","500256","0.0-4.44-0.44","dgazn7r6sxfuvau","{""user_agent"":""Mozilla/5.0 (Macintosh; Intel Mac OS X 10_14_4) AppleWebKit/537.36 (KHTML, like Gecko) Chrome/74.0.3729.131 Safari/537.36"",""on_chrome"":true,""on_mobile"":false,""language"":""en-US"",""screen_resolution"":[1440,900],""platform"":""MacIntel"",""timezone"":""Europe/Berlin""}","10","12036.265000000456","","","1558014174732","5","","","[]","Aachen","false","false","14161.110000000917"
"","html-voicekey-response","49","516768","0.0-4.45-0.45","dgazn7r6sxfuvau","{""user_agent"":""Mozilla/5.0 (Macintosh; Intel Mac OS X 10_14_4) AppleWebKit/537.36 (KHTML, like Gecko) Chrome/74.0.3729.131 Safari/537.36"",""on_chrome"":true,""on_mobile"":false,""language"":""en-US"",""screen_resolution"":[1440,900],""platform"":""MacIntel"",""timezone"":""Europe/Berlin""}","10","11399.414999997918","","","1558014192897","4","","","[]","Würzburg","false","false","12508.579999997863"
"","html-voicekey-response","50","524354","0.0-4.46-0.46","dgazn7r6sxfuvau","{""user_agent"":""Mozilla/5.0 (Macintosh; Intel Mac OS X 10_14_4) AppleWebKit/537.36 (KHTML, like Gecko) Chrome/74.0.3729.131 Safari/537.36"",""on_chrome"":true,""on_mobile"":false,""language"":""en-US"",""screen_resolution"":[1440,900],""platform"":""MacIntel"",""timezone"":""Europe/Berlin""}","10","6321.620000000496","","","1558014209410","10","","Heidelberg","[]","Heidelberg","true","false","6980.274999998102"
"","html-voicekey-response","51","531509","0.0-4.47-0.47","dgazn7r6sxfuvau","{""user_agent"":""Mozilla/5.0 (Macintosh; Intel Mac OS X 10_14_4) AppleWebKit/537.36 (KHTML, like Gecko) Chrome/74.0.3729.131 Safari/537.36"",""on_chrome"":true,""on_mobile"":false,""language"":""en-US"",""screen_resolution"":[1440,900],""platform"":""MacIntel"",""timezone"":""Europe/Berlin""}","10","5876.870000001718","","","1558014216995","7","","Erfurt","[]","Erfurt","true","false","6552.100000000792"
"","html-voicekey-response","52","542009","0.0-4.48-0.48","dgazn7r6sxfuvau","{""user_agent"":""Mozilla/5.0 (Macintosh; Intel Mac OS X 10_14_4) AppleWebKit/537.36 (KHTML, like Gecko) Chrome/74.0.3729.131 Safari/537.36"",""on_chrome"":true,""on_mobile"":false,""language"":""en-US"",""screen_resolution"":[1440,900],""platform"":""MacIntel"",""timezone"":""Europe/Berlin""}","10","5387.420000000833","","","1558014224151","3","","","[]","Ingolstadt","false","false","6496.009999998962"
"","html-voicekey-response","53","546637","0.0-4.49-0.49","dgazn7r6sxfuvau","{""user_agent"":""Mozilla/5.0 (Macintosh; Intel Mac OS X 10_14_4) AppleWebKit/537.36 (KHTML, like Gecko) Chrome/74.0.3729.131 Safari/537.36"",""on_chrome"":true,""on_mobile"":false,""language"":""en-US"",""screen_resolution"":[1440,900],""platform"":""MacIntel"",""timezone"":""Europe/Berlin""}","10","3081.1499999998837","","","1558014234650","5","","Aachen","[]","Aachen","true","false","4024.284999999567"
"","html-voicekey-response","54","560569","0.0-4.50-0.50","dgazn7r6sxfuvau","{""user_agent"":""Mozilla/5.0 (Macintosh; Intel Mac OS X 10_14_4) AppleWebKit/537.36 (KHTML, like Gecko) Chrome/74.0.3729.131 Safari/537.36"",""on_chrome"":true,""on_mobile"":false,""language"":""en-US"",""screen_resolution"":[1440,900],""platform"":""MacIntel"",""timezone"":""Europe/Berlin""}","10","8853.63500000115","","","1558014239278","8","","","[]","Gotha","false","false","9929.085000003339"
"","html-voicekey-response","55","563652","0.0-4.51-0.51","dgazn7r6sxfuvau","{""user_agent"":""Mozilla/5.0 (Macintosh; Intel Mac OS X 10_14_4) AppleWebKit/537.36 (KHTML, like Gecko) Chrome/74.0.3729.131 Safari/537.36"",""on_chrome"":true,""on_mobile"":false,""language"":""en-US"",""screen_resolution"":[1440,900],""platform"":""MacIntel"",""timezone"":""Europe/Berlin""}","10","1721.5100000011503","","","1558014253210","10","","Heidelberg","[]","Heidelberg","true","false","2480.0649999998277"
"","html-voicekey-response","56","571252","0.0-4.52-0.52","dgazn7r6sxfuvau","{""user_agent"":""Mozilla/5.0 (Macintosh; Intel Mac OS X 10_14_4) AppleWebKit/537.36 (KHTML, like Gecko) Chrome/74.0.3729.131 Safari/537.36"",""on_chrome"":true,""on_mobile"":false,""language"":""en-US"",""screen_resolution"":[1440,900],""platform"":""MacIntel"",""timezone"":""Europe/Berlin""}","10","2236.2100000007545","","","1558014256294","4","","","[]","Würzburg","false","false","3594.380000002333"
"","html-voicekey-response","57","585278","0.0-4.53-0.53","dgazn7r6sxfuvau","{""user_agent"":""Mozilla/5.0 (Macintosh; Intel Mac OS X 10_14_4) AppleWebKit/537.36 (KHTML, like Gecko) Chrome/74.0.3729.131 Safari/537.36"",""on_chrome"":true,""on_mobile"":false,""language"":""en-US"",""screen_resolution"":[1440,900],""platform"":""MacIntel"",""timezone"":""Europe/Berlin""}","10","8410.740000001015","","","1558014263895","8","","","[]","Gotha","false","false","10019.470000002999"
"","html-voicekey-response","58","595518","0.0-4.54-0.54","dgazn7r6sxfuvau","{""user_agent"":""Mozilla/5.0 (Macintosh; Intel Mac OS X 10_14_4) AppleWebKit/537.36 (KHTML, like Gecko) Chrome/74.0.3729.131 Safari/537.36"",""on_chrome"":true,""on_mobile"":false,""language"":""en-US"",""screen_resolution"":[1440,900],""platform"":""MacIntel"",""timezone"":""Europe/Berlin""}","10","5025.445000000973","","","1558014277921","5","","","[]","Aachen","false","false","6234.250000001397"
"","html-voicekey-response","59","601881","0.0-4.55-0.55","dgazn7r6sxfuvau","{""user_agent"":""Mozilla/5.0 (Macintosh; Intel Mac OS X 10_14_4) AppleWebKit/537.36 (KHTML, like Gecko) Chrome/74.0.3729.131 Safari/537.36"",""on_chrome"":true,""on_mobile"":false,""language"":""en-US"",""screen_resolution"":[1440,900],""platform"":""MacIntel"",""timezone"":""Europe/Berlin""}","10","5117.795000000018","","","1558014288159","4","","Würzburg","[]","Würzburg","true","false","5757.8949999988545"
"","html-voicekey-response","60","611955","0.0-4.56-0.56","dgazn7r6sxfuvau","{""user_agent"":""Mozilla/5.0 (Macintosh; Intel Mac OS X 10_14_4) AppleWebKit/537.36 (KHTML, like Gecko) Chrome/74.0.3729.131 Safari/537.36"",""on_chrome"":true,""on_mobile"":false,""language"":""en-US"",""screen_resolution"":[1440,900],""platform"":""MacIntel"",""timezone"":""Europe/Berlin""}","10","4644.869999998109","","","1558014294523","3","","","[]","Ingolstadt","false","false","6069.679999996908"
"","html-voicekey-response","61","615380","0.0-4.57-0.57","dgazn7r6sxfuvau","{""user_agent"":""Mozilla/5.0 (Macintosh; Intel Mac OS X 10_14_4) AppleWebKit/537.36 (KHTML, like Gecko) Chrome/74.0.3729.131 Safari/537.36"",""on_chrome"":true,""on_mobile"":false,""language"":""en-US"",""screen_resolution"":[1440,900],""platform"":""MacIntel"",""timezone"":""Europe/Berlin""}","10","2320.3550000014716","","","1558014304598","7","","Erfurt","[]","Erfurt","true","false","2820.5400000006193"
"","html-voicekey-response","62","618146","0.0-4.58-0.58","dgazn7r6sxfuvau","{""user_agent"":""Mozilla/5.0 (Macintosh; Intel Mac OS X 10_14_4) AppleWebKit/537.36 (KHTML, like Gecko) Chrome/74.0.3729.131 Safari/537.36"",""on_chrome"":true,""on_mobile"":false,""language"":""en-US"",""screen_resolution"":[1440,900],""platform"":""MacIntel"",""timezone"":""Europe/Berlin""}","10","1586.7400000005496","","","1558014308022","2","","Berlin","[]","Berlin","true","false","2161.104999999283"
"","html-voicekey-response","63","622046","0.0-4.59-0.59","dgazn7r6sxfuvau","{""user_agent"":""Mozilla/5.0 (Macintosh; Intel Mac OS X 10_14_4) AppleWebKit/537.36 (KHTML, like Gecko) Chrome/74.0.3729.131 Safari/537.36"",""on_chrome"":true,""on_mobile"":false,""language"":""en-US"",""screen_resolution"":[1440,900],""platform"":""MacIntel"",""timezone"":""Europe/Berlin""}","10","2704.1449999977835","","","1558014310788","3","","Ingolstadt","[]","Ingolstadt","true","false","3296.3299999975134"
"","html-voicekey-response","64","630204","0.0-4.60-0.60","dgazn7r6sxfuvau","{""user_agent"":""Mozilla/5.0 (Macintosh; Intel Mac OS X 10_14_4) AppleWebKit/537.36 (KHTML, like Gecko) Chrome/74.0.3729.131 Safari/537.36"",""on_chrome"":true,""on_mobile"":false,""language"":""en-US"",""screen_resolution"":[1440,900],""platform"":""MacIntel"",""timezone"":""Europe/Berlin""}","10","3087.610000000312","","","1558014314688","5","","","[]","Aachen","false","false","4153.945000001811"
"","html-voicekey-response","65","649620","0.0-4.61-0.61","dgazn7r6sxfuvau","{""user_agent"":""Mozilla/5.0 (Macintosh; Intel Mac OS X 10_14_4) AppleWebKit/537.36 (KHTML, like Gecko) Chrome/74.0.3729.131 Safari/537.36"",""on_chrome"":true,""on_mobile"":false,""language"":""en-US"",""screen_resolution"":[1440,900],""platform"":""MacIntel"",""timezone"":""Europe/Berlin""}","10","13835.554999999445","","","1558014322847","4","","","[]","Würzburg","false","false","15410.650000001653"
"","html-voicekey-response","66","664304","0.0-4.62-0.62","dgazn7r6sxfuvau","{""user_agent"":""Mozilla/5.0 (Macintosh; Intel Mac OS X 10_14_4) AppleWebKit/537.36 (KHTML, like Gecko) Chrome/74.0.3729.131 Safari/537.36"",""on_chrome"":true,""on_mobile"":false,""language"":""en-US"",""screen_resolution"":[1440,900],""platform"":""MacIntel"",""timezone"":""Europe/Berlin""}","10","9652.800000001536","","","1558014342263","5","","","[]","Aachen","false","false","10678.165000001201"
"","html-voicekey-response","67","683747","0.0-4.63-0.63","dgazn7r6sxfuvau","{""user_agent"":""Mozilla/5.0 (Macintosh; Intel Mac OS X 10_14_4) AppleWebKit/537.36 (KHTML, like Gecko) Chrome/74.0.3729.131 Safari/537.36"",""on_chrome"":true,""on_mobile"":false,""language"":""en-US"",""screen_resolution"":[1440,900],""platform"":""MacIntel"",""timezone"":""Europe/Berlin""}","10","14313.490000002179","","","1558014356947","8","","","[]","Gotha","false","false","15438.820000003092"
"","html-voicekey-response","68","695764","0.0-4.64-0.64","dgazn7r6sxfuvau","{""user_agent"":""Mozilla/5.0 (Macintosh; Intel Mac OS X 10_14_4) AppleWebKit/537.36 (KHTML, like Gecko) Chrome/74.0.3729.131 Safari/537.36"",""on_chrome"":true,""on_mobile"":false,""language"":""en-US"",""screen_resolution"":[1440,900],""platform"":""MacIntel"",""timezone"":""Europe/Berlin""}","10","6719.225000002514","","","1558014376390","3","","","[]","Ingolstadt","false","false","8011.295000000275"
"","html-voicekey-response","69","706425","0.0-4.65-0.65","dgazn7r6sxfuvau","{""user_agent"":""Mozilla/5.0 (Macintosh; Intel Mac OS X 10_14_4) AppleWebKit/537.36 (KHTML, like Gecko) Chrome/74.0.3729.131 Safari/537.36"",""on_chrome"":true,""on_mobile"":false,""language"":""en-US"",""screen_resolution"":[1440,900],""platform"":""MacIntel"",""timezone"":""Europe/Berlin""}","10","4162.659999999776","","","1558014388409","5","","","[]","Aachen","false","false","6654.539999999572"
"","html-voicekey-response","70","712783","0.0-4.66-0.66","dgazn7r6sxfuvau","{""user_agent"":""Mozilla/5.0 (Macintosh; Intel Mac OS X 10_14_4) AppleWebKit/537.36 (KHTML, like Gecko) Chrome/74.0.3729.131 Safari/537.36"",""on_chrome"":true,""on_mobile"":false,""language"":""en-US"",""screen_resolution"":[1440,900],""platform"":""MacIntel"",""timezone"":""Europe/Berlin""}","10","1677.9700000022772","","","1558014399068","4","","","[]","Würzburg","false","false","2352.930000000866"
"","html-voicekey-response","71","719073","0.0-4.67-0.67","dgazn7r6sxfuvau","{""user_agent"":""Mozilla/5.0 (Macintosh; Intel Mac OS X 10_14_4) AppleWebKit/537.36 (KHTML, like Gecko) Chrome/74.0.3729.131 Safari/537.36"",""on_chrome"":true,""on_mobile"":false,""language"":""en-US"",""screen_resolution"":[1440,900],""platform"":""MacIntel"",""timezone"":""Europe/Berlin""}","10","5019.0600000003815","","","1558014405427","10","","Heidelberg","[]","Heidelberg","true","false","5684.649999999325"
"","html-voicekey-response","72","726824","0.0-4.68-0.68","dgazn7r6sxfuvau","{""user_agent"":""Mozilla/5.0 (Macintosh; Intel Mac OS X 10_14_4) AppleWebKit/537.36 (KHTML, like Gecko) Chrome/74.0.3729.131 Safari/537.36"",""on_chrome"":true,""on_mobile"":false,""language"":""en-US"",""screen_resolution"":[1440,900],""platform"":""MacIntel"",""timezone"":""Europe/Berlin""}","10","6202.945000002603","","","1558014411716","5","","Aachen","[]","Aachen","true","false","7144.6450000002515"
"","html-voicekey-response","73","735231","0.0-4.69-0.69","dgazn7r6sxfuvau","{""user_agent"":""Mozilla/5.0 (Macintosh; Intel Mac OS X 10_14_4) AppleWebKit/537.36 (KHTML, like Gecko) Chrome/74.0.3729.131 Safari/537.36"",""on_chrome"":true,""on_mobile"":false,""language"":""en-US"",""screen_resolution"":[1440,900],""platform"":""MacIntel"",""timezone"":""Europe/Berlin""}","10","3209.464999997965","","","1558014419467","3","","","[]","Ingolstadt","false","false","4401.194999998552"
"","html-voicekey-response","74","741048","0.0-4.70-0.70","dgazn7r6sxfuvau","{""user_agent"":""Mozilla/5.0 (Macintosh; Intel Mac OS X 10_14_4) AppleWebKit/537.36 (KHTML, like Gecko) Chrome/74.0.3729.131 Safari/537.36"",""on_chrome"":true,""on_mobile"":false,""language"":""en-US"",""screen_resolution"":[1440,900],""platform"":""MacIntel"",""timezone"":""Europe/Berlin""}","10","4569.170000000484","","","1558014427874","4","","Würzburg","[]","Würzburg","true","false","5211.250000000233"
"","html-voicekey-response","75","749425","0.0-4.71-0.71","dgazn7r6sxfuvau","{""user_agent"":""Mozilla/5.0 (Macintosh; Intel Mac OS X 10_14_4) AppleWebKit/537.36 (KHTML, like Gecko) Chrome/74.0.3729.131 Safari/537.36"",""on_chrome"":true,""on_mobile"":false,""language"":""en-US"",""screen_resolution"":[1440,900],""platform"":""MacIntel"",""timezone"":""Europe/Berlin""}","10","Infinity","","","1558014433692","5","","Aachen","[]","Aachen","true","false","7770.675000003423"
"","html-voicekey-response","76","759577","0.0-4.72-0.72","dgazn7r6sxfuvau","{""user_agent"":""Mozilla/5.0 (Macintosh; Intel Mac OS X 10_14_4) AppleWebKit/537.36 (KHTML, like Gecko) Chrome/74.0.3729.131 Safari/537.36"",""on_chrome"":true,""on_mobile"":false,""language"":""en-US"",""screen_resolution"":[1440,900],""platform"":""MacIntel"",""timezone"":""Europe/Berlin""}","10","5451.930000000959","","","1558014442069","8","","","[]","Gotha","false","false","6143.88500000129"
"","html-voicekey-response","77","766238","0.0-4.73-0.73","dgazn7r6sxfuvau","{""user_agent"":""Mozilla/5.0 (Macintosh; Intel Mac OS X 10_14_4) AppleWebKit/537.36 (KHTML, like Gecko) Chrome/74.0.3729.131 Safari/537.36"",""on_chrome"":true,""on_mobile"":false,""language"":""en-US"",""screen_resolution"":[1440,900],""platform"":""MacIntel"",""timezone"":""Europe/Berlin""}","10","1829.67000000095","","","1558014452221","5","","","[]","Aachen","false","false","2655.1500000023516"
"","html-voicekey-response","78","775150","0.0-4.74-0.74","dgazn7r6sxfuvau","{""user_agent"":""Mozilla/5.0 (Macintosh; Intel Mac OS X 10_14_4) AppleWebKit/537.36 (KHTML, like Gecko) Chrome/74.0.3729.131 Safari/537.36"",""on_chrome"":true,""on_mobile"":false,""language"":""en-US"",""screen_resolution"":[1440,900],""platform"":""MacIntel"",""timezone"":""Europe/Berlin""}","10","3883.6949999985286","","","1558014458882","4","","","[]","Würzburg","false","false","4905.445000000414"
"","html-voicekey-response","79","783500","0.0-4.75-0.75","dgazn7r6sxfuvau","{""user_agent"":""Mozilla/5.0 (Macintosh; Intel Mac OS X 10_14_4) AppleWebKit/537.36 (KHTML, like Gecko) Chrome/74.0.3729.131 Safari/537.36"",""on_chrome"":true,""on_mobile"":false,""language"":""en-US"",""screen_resolution"":[1440,900],""platform"":""MacIntel"",""timezone"":""Europe/Berlin""}","10","6935.005000001029","","","1558014467793","5","","Aachen","[]","Aachen","true","false","7743.569999998785"
"","html-voicekey-response","80","786561","0.0-4.76-0.76","dgazn7r6sxfuvau","{""user_agent"":""Mozilla/5.0 (Macintosh; Intel Mac OS X 10_14_4) AppleWebKit/537.36 (KHTML, like Gecko) Chrome/74.0.3729.131 Safari/537.36"",""on_chrome"":true,""on_mobile"":false,""language"":""en-US"",""screen_resolution"":[1440,900],""platform"":""MacIntel"",""timezone"":""Europe/Berlin""}","10","1746.6849999999163","","","1558014476144","1","","Magdeburg","[]","Magdeburg","true","false","2455.3950000008335"
"","html-voicekey-response","81","794164","0.0-4.77-0.77","dgazn7r6sxfuvau","{""user_agent"":""Mozilla/5.0 (Macintosh; Intel Mac OS X 10_14_4) AppleWebKit/537.36 (KHTML, like Gecko) Chrome/74.0.3729.131 Safari/537.36"",""on_chrome"":true,""on_mobile"":false,""language"":""en-US"",""screen_resolution"":[1440,900],""platform"":""MacIntel"",""timezone"":""Europe/Berlin""}","10","6136.079999998305","","","1558014479205","3","","Ingolstadt","[]","Ingolstadt","true","false","6994.589999998454"
"","html-voicekey-response","82","801186","0.0-4.78-0.78","dgazn7r6sxfuvau","{""user_agent"":""Mozilla/5.0 (Macintosh; Intel Mac OS X 10_14_4) AppleWebKit/537.36 (KHTML, like Gecko) Chrome/74.0.3729.131 Safari/537.36"",""on_chrome"":true,""on_mobile"":false,""language"":""en-US"",""screen_resolution"":[1440,900],""platform"":""MacIntel"",""timezone"":""Europe/Berlin""}","10","1823.02999999756","","","1558014486809","4","","","[]","Würzburg","false","false","3015.2899999993388"
"","html-voicekey-response","83","805270","0.0-4.79-0.79","dgazn7r6sxfuvau","{""user_agent"":""Mozilla/5.0 (Macintosh; Intel Mac OS X 10_14_4) AppleWebKit/537.36 (KHTML, like Gecko) Chrome/74.0.3729.131 Safari/537.36"",""on_chrome"":true,""on_mobile"":false,""language"":""en-US"",""screen_resolution"":[1440,900],""platform"":""MacIntel"",""timezone"":""Europe/Berlin""}","10","2369.0799999984215","","","1558014493830","5","","Aachen","[]","Aachen","true","false","3476.5099999967497"
"","html-voicekey-response","84","811727","0.0-4.80-0.80","dgazn7r6sxfuvau","{""user_agent"":""Mozilla/5.0 (Macintosh; Intel Mac OS X 10_14_4) AppleWebKit/537.36 (KHTML, like Gecko) Chrome/74.0.3729.131 Safari/537.36"",""on_chrome"":true,""on_mobile"":false,""language"":""en-US"",""screen_resolution"":[1440,900],""platform"":""MacIntel"",""timezone"":""Europe/Berlin""}","10","5207.950000001676","","","1558014497915","7","","Erfurt","[]","Erfurt","true","false","5850.225000001956"
"","html-voicekey-response","85","838827","0.0-4.81-0.81","dgazn7r6sxfuvau","{""user_agent"":""Mozilla/5.0 (Macintosh; Intel Mac OS X 10_14_4) AppleWebKit/537.36 (KHTML, like Gecko) Chrome/74.0.3729.131 Safari/537.36"",""on_chrome"":true,""on_mobile"":false,""language"":""en-US"",""screen_resolution"":[1440,900],""platform"":""MacIntel"",""timezone"":""Europe/Berlin""}","10","21417.20499999947","","","1558014504372","8","","","[]","Gotha","false","false","23091.410000000848"
"","html-voicekey-response","86","846650","0.0-4.82-0.82","dgazn7r6sxfuvau","{""user_agent"":""Mozilla/5.0 (Macintosh; Intel Mac OS X 10_14_4) AppleWebKit/537.36 (KHTML, like Gecko) Chrome/74.0.3729.131 Safari/537.36"",""on_chrome"":true,""on_mobile"":false,""language"":""en-US"",""screen_resolution"":[1440,900],""platform"":""MacIntel"",""timezone"":""Europe/Berlin""}","10","1755.8000000006055","","","1558014531473","4","","","[]","Würzburg","false","false","3814.9650000013644"
"","html-voicekey-response","87","856161","0.0-4.83-0.83","dgazn7r6sxfuvau","{""user_agent"":""Mozilla/5.0 (Macintosh; Intel Mac OS X 10_14_4) AppleWebKit/537.36 (KHTML, like Gecko) Chrome/74.0.3729.131 Safari/537.36"",""on_chrome"":true,""on_mobile"":false,""language"":""en-US"",""screen_resolution"":[1440,900],""platform"":""MacIntel"",""timezone"":""Europe/Berlin""}","10","8366.210000001802","","","1558014539295","5","","Aachen","[]","Aachen","true","false","8903.970000002999"
"","html-voicekey-response","88","859798","0.0-4.84-0.84","dgazn7r6sxfuvau","{""user_agent"":""Mozilla/5.0 (Macintosh; Intel Mac OS X 10_14_4) AppleWebKit/537.36 (KHTML, like Gecko) Chrome/74.0.3729.131 Safari/537.36"",""on_chrome"":true,""on_mobile"":false,""language"":""en-US"",""screen_resolution"":[1440,900],""platform"":""MacIntel"",""timezone"":""Europe/Berlin""}","10","2217.6799999995624","","","1558014548806","3","","Ingolstadt","[]","Ingolstadt","true","false","3027.3299999970477"
"","html-voicekey-response","89","872335","0.0-4.85-0.85","dgazn7r6sxfuvau","{""user_agent"":""Mozilla/5.0 (Macintosh; Intel Mac OS X 10_14_4) AppleWebKit/537.36 (KHTML, like Gecko) Chrome/74.0.3729.131 Safari/537.36"",""on_chrome"":true,""on_mobile"":false,""language"":""en-US"",""screen_resolution"":[1440,900],""platform"":""MacIntel"",""timezone"":""Europe/Berlin""}","10","6770.629999997187","","","1558014552444","5","","","[]","Aachen","false","false","8528.91499999899"
