"value","trial_type","trial_index","time_elapsed","internal_node_id","subject","browser_info","participant_number","rt","responses","view_history","presentation_start_time","id","text","response","keypresses","answer","correct","study","experimenter_rt"
"","call-function","0","5","0.0-0.0","o8j2qwk3vbdupkx","{""user_agent"":""Mozilla/5.0 (Macintosh; Intel Mac OS X 10_14_4) AppleWebKit/537.36 (KHTML, like Gecko) Chrome/74.0.3729.131 Safari/537.36"",""on_chrome"":true,""on_mobile"":false,""language"":""en-US"",""screen_resolution"":[1440,900],""platform"":""MacIntel"",""timezone"":""Europe/Berlin""}","11","","","","","","","","","","","",""
"","survey-text","1","6182","0.0-1.0","o8j2qwk3vbdupkx","{""user_agent"":""Mozilla/5.0 (Macintosh; Intel Mac OS X 10_14_4) AppleWebKit/537.36 (KHTML, like Gecko) Chrome/74.0.3729.131 Safari/537.36"",""on_chrome"":true,""on_mobile"":false,""language"":""en-US"",""screen_resolution"":[1440,900],""platform"":""MacIntel"",""timezone"":""Europe/Berlin""}","11","6175","{""Q0"":""11""}","","","","","","","","","",""
"","instructions","2","96049","0.0-2.0","o8j2qwk3vbdupkx","{""user_agent"":""Mozilla/5.0 (Macintosh; Intel Mac OS X 10_14_4) AppleWebKit/537.36 (KHTML, like Gecko) Chrome/74.0.3729.131 Safari/537.36"",""on_chrome"":true,""on_mobile"":false,""language"":""en-US"",""screen_resolution"":[1440,900],""platform"":""MacIntel"",""timezone"":""Europe/Berlin""}","11","89866","","[{""page_index"":0,""viewing_time"":89865}]","","","","","","","","",""
"","call-function","3","96049","0.0-3.0","o8j2qwk3vbdupkx","{""user_agent"":""Mozilla/5.0 (Macintosh; Intel Mac OS X 10_14_4) AppleWebKit/537.36 (KHTML, like Gecko) Chrome/74.0.3729.131 Safari/537.36"",""on_chrome"":true,""on_mobile"":false,""language"":""en-US"",""screen_resolution"":[1440,900],""platform"":""MacIntel"",""timezone"":""Europe/Berlin""}","11","","","","","","","","","","","",""
"","html-voicekey-response","4","107925","0.0-4.0-0.0","o8j2qwk3vbdupkx","{""user_agent"":""Mozilla/5.0 (Macintosh; Intel Mac OS X 10_14_4) AppleWebKit/537.36 (KHTML, like Gecko) Chrome/74.0.3729.131 Safari/537.36"",""on_chrome"":true,""on_mobile"":false,""language"":""en-US"",""screen_resolution"":[1440,900],""platform"":""MacIntel"",""timezone"":""Europe/Berlin""}","11","10520.674999997782","","","1558019312272","1","","Magdeburg","[]","Magdeburg","true","true","11269.140000000334"
"","html-voicekey-response","5","114230","0.0-4.1-0.1","o8j2qwk3vbdupkx","{""user_agent"":""Mozilla/5.0 (Macintosh; Intel Mac OS X 10_14_4) AppleWebKit/537.36 (KHTML, like Gecko) Chrome/74.0.3729.131 Safari/537.36"",""on_chrome"":true,""on_mobile"":false,""language"":""en-US"",""screen_resolution"":[1440,900],""platform"":""MacIntel"",""timezone"":""Europe/Berlin""}","11","5090.024999999359","","","1558019324150","1","","Magdeburg","[]","Magdeburg","true","false","5699.994999999035"
"","html-voicekey-response","6","117430","0.0-4.2-0.2","o8j2qwk3vbdupkx","{""user_agent"":""Mozilla/5.0 (Macintosh; Intel Mac OS X 10_14_4) AppleWebKit/537.36 (KHTML, like Gecko) Chrome/74.0.3729.131 Safari/537.36"",""on_chrome"":true,""on_mobile"":false,""language"":""en-US"",""screen_resolution"":[1440,900],""platform"":""MacIntel"",""timezone"":""Europe/Berlin""}","11","2005.1700000020269","","","1558019330452","2","","Berlin","[]","Berlin","true","true","2597.525000001042"
"","html-voicekey-response","7","124236","0.0-4.3-0.3","o8j2qwk3vbdupkx","{""user_agent"":""Mozilla/5.0 (Macintosh; Intel Mac OS X 10_14_4) AppleWebKit/537.36 (KHTML, like Gecko) Chrome/74.0.3729.131 Safari/537.36"",""on_chrome"":true,""on_mobile"":false,""language"":""en-US"",""screen_resolution"":[1440,900],""platform"":""MacIntel"",""timezone"":""Europe/Berlin""}","11","5578.960000000579","","","1558019333652","2","","Berlin","[]","Berlin","true","false","6203.334999998333"
"","html-voicekey-response","8","127235","0.0-4.4-0.4","o8j2qwk3vbdupkx","{""user_agent"":""Mozilla/5.0 (Macintosh; Intel Mac OS X 10_14_4) AppleWebKit/537.36 (KHTML, like Gecko) Chrome/74.0.3729.131 Safari/537.36"",""on_chrome"":true,""on_mobile"":false,""language"":""en-US"",""screen_resolution"":[1440,900],""platform"":""MacIntel"",""timezone"":""Europe/Berlin""}","11","1488.7849999993982","","","1558019340458","3","","Ingolstadt","[]","Ingolstadt","true","true","2397.3650000007183"
"","html-voicekey-response","9","129827","0.0-4.5-0.5","o8j2qwk3vbdupkx","{""user_agent"":""Mozilla/5.0 (Macintosh; Intel Mac OS X 10_14_4) AppleWebKit/537.36 (KHTML, like Gecko) Chrome/74.0.3729.131 Safari/537.36"",""on_chrome"":true,""on_mobile"":false,""language"":""en-US"",""screen_resolution"":[1440,900],""platform"":""MacIntel"",""timezone"":""Europe/Berlin""}","11","973.4800000022282","","","1558019343458","4","","Würzburg","[]","Würzburg","true","true","1989.5850000029895"
"","html-voicekey-response","10","145162","0.0-4.6-0.6","o8j2qwk3vbdupkx","{""user_agent"":""Mozilla/5.0 (Macintosh; Intel Mac OS X 10_14_4) AppleWebKit/537.36 (KHTML, like Gecko) Chrome/74.0.3729.131 Safari/537.36"",""on_chrome"":true,""on_mobile"":false,""language"":""en-US"",""screen_resolution"":[1440,900],""platform"":""MacIntel"",""timezone"":""Europe/Berlin""}","11","10456.125000002276","","","1558019346049","3","","","[]","Ingolstadt","false","false","11331.325000002835"
"","html-voicekey-response","11","148022","0.0-4.7-0.7","o8j2qwk3vbdupkx","{""user_agent"":""Mozilla/5.0 (Macintosh; Intel Mac OS X 10_14_4) AppleWebKit/537.36 (KHTML, like Gecko) Chrome/74.0.3729.131 Safari/537.36"",""on_chrome"":true,""on_mobile"":false,""language"":""en-US"",""screen_resolution"":[1440,900],""platform"":""MacIntel"",""timezone"":""Europe/Berlin""}","11","1616.5049999998068","","","1558019361384","4","","Würzburg","[]","Würzburg","true","false","2257.9399999995076"
"","html-voicekey-response","12","151539","0.0-4.8-0.8","o8j2qwk3vbdupkx","{""user_agent"":""Mozilla/5.0 (Macintosh; Intel Mac OS X 10_14_4) AppleWebKit/537.36 (KHTML, like Gecko) Chrome/74.0.3729.131 Safari/537.36"",""on_chrome"":true,""on_mobile"":false,""language"":""en-US"",""screen_resolution"":[1440,900],""platform"":""MacIntel"",""timezone"":""Europe/Berlin""}","11","2221.909999998234","","","1558019364245","5","","Aachen","[]","Aachen","true","true","2914.6249999976135"
"","html-voicekey-response","13","154116","0.0-4.9-0.9","o8j2qwk3vbdupkx","{""user_agent"":""Mozilla/5.0 (Macintosh; Intel Mac OS X 10_14_4) AppleWebKit/537.36 (KHTML, like Gecko) Chrome/74.0.3729.131 Safari/537.36"",""on_chrome"":true,""on_mobile"":false,""language"":""en-US"",""screen_resolution"":[1440,900],""platform"":""MacIntel"",""timezone"":""Europe/Berlin""}","11","1314.809999997879","","","1558019367762","6","","Dresden","[]","Dresden","true","true","1974.129999998695"
"","html-voicekey-response","14","157431","0.0-4.10-0.10","o8j2qwk3vbdupkx","{""user_agent"":""Mozilla/5.0 (Macintosh; Intel Mac OS X 10_14_4) AppleWebKit/537.36 (KHTML, like Gecko) Chrome/74.0.3729.131 Safari/537.36"",""on_chrome"":true,""on_mobile"":false,""language"":""en-US"",""screen_resolution"":[1440,900],""platform"":""MacIntel"",""timezone"":""Europe/Berlin""}","11","2137.4000000012807","","","1558019370338","5","","Aachen","[]","Aachen","true","false","2712.3849999989034"
"","html-voicekey-response","15","159781","0.0-4.11-0.11","o8j2qwk3vbdupkx","{""user_agent"":""Mozilla/5.0 (Macintosh; Intel Mac OS X 10_14_4) AppleWebKit/537.36 (KHTML, like Gecko) Chrome/74.0.3729.131 Safari/537.36"",""on_chrome"":true,""on_mobile"":false,""language"":""en-US"",""screen_resolution"":[1440,900],""platform"":""MacIntel"",""timezone"":""Europe/Berlin""}","11","1173.2600000012376","","","1558019373653","6","","Dresden","[]","Dresden","true","false","1747.4900000015623"
"","html-voicekey-response","16","162067","0.0-4.12-0.12","o8j2qwk3vbdupkx","{""user_agent"":""Mozilla/5.0 (Macintosh; Intel Mac OS X 10_14_4) AppleWebKit/537.36 (KHTML, like Gecko) Chrome/74.0.3729.131 Safari/537.36"",""on_chrome"":true,""on_mobile"":false,""language"":""en-US"",""screen_resolution"":[1440,900],""platform"":""MacIntel"",""timezone"":""Europe/Berlin""}","11","1189.0099999998988","","","1558019376003","2","","Berlin","[]","Berlin","true","false","1682.0050000023912"
"","html-voicekey-response","17","164621","0.0-4.13-0.13","o8j2qwk3vbdupkx","{""user_agent"":""Mozilla/5.0 (Macintosh; Intel Mac OS X 10_14_4) AppleWebKit/537.36 (KHTML, like Gecko) Chrome/74.0.3729.131 Safari/537.36"",""on_chrome"":true,""on_mobile"":false,""language"":""en-US"",""screen_resolution"":[1440,900],""platform"":""MacIntel"",""timezone"":""Europe/Berlin""}","11","1443.2900000009163","","","1558019378290","1","","Magdeburg","[]","Magdeburg","true","false","1951.245000000199"
"","html-voicekey-response","18","167455","0.0-4.14-0.14","o8j2qwk3vbdupkx","{""user_agent"":""Mozilla/5.0 (Macintosh; Intel Mac OS X 10_14_4) AppleWebKit/537.36 (KHTML, like Gecko) Chrome/74.0.3729.131 Safari/537.36"",""on_chrome"":true,""on_mobile"":false,""language"":""en-US"",""screen_resolution"":[1440,900],""platform"":""MacIntel"",""timezone"":""Europe/Berlin""}","11","1589.7350000030478","","","1558019380843","7","","Erfurt","[]","Erfurt","true","true","2231.435000001511"
"","html-voicekey-response","19","170004","0.0-4.15-0.15","o8j2qwk3vbdupkx","{""user_agent"":""Mozilla/5.0 (Macintosh; Intel Mac OS X 10_14_4) AppleWebKit/537.36 (KHTML, like Gecko) Chrome/74.0.3729.131 Safari/537.36"",""on_chrome"":true,""on_mobile"":false,""language"":""en-US"",""screen_resolution"":[1440,900],""platform"":""MacIntel"",""timezone"":""Europe/Berlin""}","11","1089.074999997893","","","1558019383677","8","","Gotha","[]","Gotha","true","true","1947.6299999987532"
"","html-voicekey-response","20","172639","0.0-4.16-0.16","o8j2qwk3vbdupkx","{""user_agent"":""Mozilla/5.0 (Macintosh; Intel Mac OS X 10_14_4) AppleWebKit/537.36 (KHTML, like Gecko) Chrome/74.0.3729.131 Safari/537.36"",""on_chrome"":true,""on_mobile"":false,""language"":""en-US"",""screen_resolution"":[1440,900],""platform"":""MacIntel"",""timezone"":""Europe/Berlin""}","11","1472.504999999574","","","1558019386227","7","","Erfurt","[]","Erfurt","true","false","2031.2799999992421"
"","html-voicekey-response","21","174713","0.0-4.17-0.17","o8j2qwk3vbdupkx","{""user_agent"":""Mozilla/5.0 (Macintosh; Intel Mac OS X 10_14_4) AppleWebKit/537.36 (KHTML, like Gecko) Chrome/74.0.3729.131 Safari/537.36"",""on_chrome"":true,""on_mobile"":false,""language"":""en-US"",""screen_resolution"":[1440,900],""platform"":""MacIntel"",""timezone"":""Europe/Berlin""}","11","879.4649999998277","","","1558019388861","8","","Gotha","[]","Gotha","true","false","1471.6450000014447"
"","html-voicekey-response","22","177963","0.0-4.18-0.18","o8j2qwk3vbdupkx","{""user_agent"":""Mozilla/5.0 (Macintosh; Intel Mac OS X 10_14_4) AppleWebKit/537.36 (KHTML, like Gecko) Chrome/74.0.3729.131 Safari/537.36"",""on_chrome"":true,""on_mobile"":false,""language"":""en-US"",""screen_resolution"":[1440,900],""platform"":""MacIntel"",""timezone"":""Europe/Berlin""}","11","1722.3049999973505","","","1558019390936","3","","Ingolstadt","[]","Ingolstadt","true","false","2646.774999997433"
"","html-voicekey-response","23","187781","0.0-4.19-0.19","o8j2qwk3vbdupkx","{""user_agent"":""Mozilla/5.0 (Macintosh; Intel Mac OS X 10_14_4) AppleWebKit/537.36 (KHTML, like Gecko) Chrome/74.0.3729.131 Safari/537.36"",""on_chrome"":true,""on_mobile"":false,""language"":""en-US"",""screen_resolution"":[1440,900],""platform"":""MacIntel"",""timezone"":""Europe/Berlin""}","11","8589.685000000673","","","1558019394185","9","","München","[]","München","true","true","9214.445000001433"
"","html-voicekey-response","24","190592","0.0-4.20-0.20","o8j2qwk3vbdupkx","{""user_agent"":""Mozilla/5.0 (Macintosh; Intel Mac OS X 10_14_4) AppleWebKit/537.36 (KHTML, like Gecko) Chrome/74.0.3729.131 Safari/537.36"",""on_chrome"":true,""on_mobile"":false,""language"":""en-US"",""screen_resolution"":[1440,900],""platform"":""MacIntel"",""timezone"":""Europe/Berlin""}","11","1449.6500000003202","","","1558019404003","10","","Heidelberg","[]","Heidelberg","true","true","2208.540000003268"
"","html-voicekey-response","25","192843","0.0-4.21-0.21","o8j2qwk3vbdupkx","{""user_agent"":""Mozilla/5.0 (Macintosh; Intel Mac OS X 10_14_4) AppleWebKit/537.36 (KHTML, like Gecko) Chrome/74.0.3729.131 Safari/537.36"",""on_chrome"":true,""on_mobile"":false,""language"":""en-US"",""screen_resolution"":[1440,900],""platform"":""MacIntel"",""timezone"":""Europe/Berlin""}","11","1055.2850000002131","","","1558019406815","9","","München","[]","München","true","false","1647.769999999582"
"","html-voicekey-response","26","195176","0.0-4.22-0.22","o8j2qwk3vbdupkx","{""user_agent"":""Mozilla/5.0 (Macintosh; Intel Mac OS X 10_14_4) AppleWebKit/537.36 (KHTML, like Gecko) Chrome/74.0.3729.131 Safari/537.36"",""on_chrome"":true,""on_mobile"":false,""language"":""en-US"",""screen_resolution"":[1440,900],""platform"":""MacIntel"",""timezone"":""Europe/Berlin""}","11","971.5249999988649","","","1558019409065","10","","Heidelberg","[]","Heidelberg","true","false","1730.4150000018126"
"","html-voicekey-response","27","197842","0.0-4.23-0.23","o8j2qwk3vbdupkx","{""user_agent"":""Mozilla/5.0 (Macintosh; Intel Mac OS X 10_14_4) AppleWebKit/537.36 (KHTML, like Gecko) Chrome/74.0.3729.131 Safari/537.36"",""on_chrome"":true,""on_mobile"":false,""language"":""en-US"",""screen_resolution"":[1440,900],""platform"":""MacIntel"",""timezone"":""Europe/Berlin""}","11","1237.985000001418","","","1558019411399","11","","Alfeld","[]","Alfeld","true","true","2063.014999999723"
"","html-voicekey-response","28","205300","0.0-4.24-0.24","o8j2qwk3vbdupkx","{""user_agent"":""Mozilla/5.0 (Macintosh; Intel Mac OS X 10_14_4) AppleWebKit/537.36 (KHTML, like Gecko) Chrome/74.0.3729.131 Safari/537.36"",""on_chrome"":true,""on_mobile"":false,""language"":""en-US"",""screen_resolution"":[1440,900],""platform"":""MacIntel"",""timezone"":""Europe/Berlin""}","11","2094.4499999985333","","","1558019414065","4","","","[]","Würzburg","false","false","3454.1949999984354"
"","html-voicekey-response","29","210399","0.0-4.25-0.25","o8j2qwk3vbdupkx","{""user_agent"":""Mozilla/5.0 (Macintosh; Intel Mac OS X 10_14_4) AppleWebKit/537.36 (KHTML, like Gecko) Chrome/74.0.3729.131 Safari/537.36"",""on_chrome"":true,""on_mobile"":false,""language"":""en-US"",""screen_resolution"":[1440,900],""platform"":""MacIntel"",""timezone"":""Europe/Berlin""}","11","2620.8500000010013","","","1558019421523","11","","Alfeld","[]","Alfeld","true","false","4496.484999999666"
"","html-voicekey-response","30","222241","0.0-4.26-0.26","o8j2qwk3vbdupkx","{""user_agent"":""Mozilla/5.0 (Macintosh; Intel Mac OS X 10_14_4) AppleWebKit/537.36 (KHTML, like Gecko) Chrome/74.0.3729.131 Safari/537.36"",""on_chrome"":true,""on_mobile"":false,""language"":""en-US"",""screen_resolution"":[1440,900],""platform"":""MacIntel"",""timezone"":""Europe/Berlin""}","11","7079.950000001036","","","1558019426622","5","","","[]","Aachen","false","false","7838.824999998906"
"","html-voicekey-response","31","225196","0.0-4.27-0.27","o8j2qwk3vbdupkx","{""user_agent"":""Mozilla/5.0 (Macintosh; Intel Mac OS X 10_14_4) AppleWebKit/537.36 (KHTML, like Gecko) Chrome/74.0.3729.131 Safari/537.36"",""on_chrome"":true,""on_mobile"":false,""language"":""en-US"",""screen_resolution"":[1440,900],""platform"":""MacIntel"",""timezone"":""Europe/Berlin""}","11","1308.2000000011526","","","1558019438466","6","","Dresden","[]","Dresden","true","false","2349.8600000020815"
"","html-voicekey-response","32","233982","0.0-4.28-0.28","o8j2qwk3vbdupkx","{""user_agent"":""Mozilla/5.0 (Macintosh; Intel Mac OS X 10_14_4) AppleWebKit/537.36 (KHTML, like Gecko) Chrome/74.0.3729.131 Safari/537.36"",""on_chrome"":true,""on_mobile"":false,""language"":""en-US"",""screen_resolution"":[1440,900],""platform"":""MacIntel"",""timezone"":""Europe/Berlin""}","11","3705.1849999969186","","","1558019441418","7","","","[]","Erfurt","false","false","4780.99999999904"
"","html-voicekey-response","33","250318","0.0-4.29-0.29","o8j2qwk3vbdupkx","{""user_agent"":""Mozilla/5.0 (Macintosh; Intel Mac OS X 10_14_4) AppleWebKit/537.36 (KHTML, like Gecko) Chrome/74.0.3729.131 Safari/537.36"",""on_chrome"":true,""on_mobile"":false,""language"":""en-US"",""screen_resolution"":[1440,900],""platform"":""MacIntel"",""timezone"":""Europe/Berlin""}","11","14625.920000000251","","","1558019450204","8","","Gotha","[]","Gotha","true","false","15733.045000000857"
"","html-voicekey-response","34","253786","0.0-4.30-0.30","o8j2qwk3vbdupkx","{""user_agent"":""Mozilla/5.0 (Macintosh; Intel Mac OS X 10_14_4) AppleWebKit/537.36 (KHTML, like Gecko) Chrome/74.0.3729.131 Safari/537.36"",""on_chrome"":true,""on_mobile"":false,""language"":""en-US"",""screen_resolution"":[1440,900],""platform"":""MacIntel"",""timezone"":""Europe/Berlin""}","11","2106.2349999973144","","","1558019466541","10","","Heidelberg","[]","Heidelberg","true","false","2864.804999997432"
"","html-voicekey-response","35","256752","0.0-4.31-0.31","o8j2qwk3vbdupkx","{""user_agent"":""Mozilla/5.0 (Macintosh; Intel Mac OS X 10_14_4) AppleWebKit/537.36 (KHTML, like Gecko) Chrome/74.0.3729.131 Safari/537.36"",""on_chrome"":true,""on_mobile"":false,""language"":""en-US"",""screen_resolution"":[1440,900],""platform"":""MacIntel"",""timezone"":""Europe/Berlin""}","11","1287.7749999987195","","","1558019470009","9","","München","[]","München","true","false","2363.150000001042"
"","html-voicekey-response","36","263704","0.0-4.32-0.32","o8j2qwk3vbdupkx","{""user_agent"":""Mozilla/5.0 (Macintosh; Intel Mac OS X 10_14_4) AppleWebKit/537.36 (KHTML, like Gecko) Chrome/74.0.3729.131 Safari/537.36"",""on_chrome"":true,""on_mobile"":false,""language"":""en-US"",""screen_resolution"":[1440,900],""platform"":""MacIntel"",""timezone"":""Europe/Berlin""}","11","2088.059999999887","","","1558019472975","4","","","[]","Würzburg","false","false","2945.820000000822"
"","html-voicekey-response","37","271526","0.0-4.33-0.33","o8j2qwk3vbdupkx","{""user_agent"":""Mozilla/5.0 (Macintosh; Intel Mac OS X 10_14_4) AppleWebKit/537.36 (KHTML, like Gecko) Chrome/74.0.3729.131 Safari/537.36"",""on_chrome"":true,""on_mobile"":false,""language"":""en-US"",""screen_resolution"":[1440,900],""platform"":""MacIntel"",""timezone"":""Europe/Berlin""}","11","2792.8350000019186","","","1558019479928","5","","","[]","Aachen","false","false","3817.8550000011455"
"","html-voicekey-response","38","276688","0.0-4.34-0.34","o8j2qwk3vbdupkx","{""user_agent"":""Mozilla/5.0 (Macintosh; Intel Mac OS X 10_14_4) AppleWebKit/537.36 (KHTML, like Gecko) Chrome/74.0.3729.131 Safari/537.36"",""on_chrome"":true,""on_mobile"":false,""language"":""en-US"",""screen_resolution"":[1440,900],""platform"":""MacIntel"",""timezone"":""Europe/Berlin""}","11","2254.5799999987125","","","1558019487749","11","","Alfeld","[]","Alfeld","true","false","4559.205000001355"
"","html-voicekey-response","39","282754","0.0-4.35-0.35","o8j2qwk3vbdupkx","{""user_agent"":""Mozilla/5.0 (Macintosh; Intel Mac OS X 10_14_4) AppleWebKit/537.36 (KHTML, like Gecko) Chrome/74.0.3729.131 Safari/537.36"",""on_chrome"":true,""on_mobile"":false,""language"":""en-US"",""screen_resolution"":[1440,900],""platform"":""MacIntel"",""timezone"":""Europe/Berlin""}","11","4604.980000001704","","","1558019492911","7","","Erfurt","[]","Erfurt","true","false","5463.15500000125"
"","html-voicekey-response","40","285963","0.0-4.36-0.36","o8j2qwk3vbdupkx","{""user_agent"":""Mozilla/5.0 (Macintosh; Intel Mac OS X 10_14_4) AppleWebKit/537.36 (KHTML, like Gecko) Chrome/74.0.3729.131 Safari/537.36"",""on_chrome"":true,""on_mobile"":false,""language"":""en-US"",""screen_resolution"":[1440,900],""platform"":""MacIntel"",""timezone"":""Europe/Berlin""}","11","2046.6849999992178","","","1558019498977","8","","Gotha","[]","Gotha","true","false","2605.634999999893"
"","html-voicekey-response","41","291563","0.0-4.37-0.37","o8j2qwk3vbdupkx","{""user_agent"":""Mozilla/5.0 (Macintosh; Intel Mac OS X 10_14_4) AppleWebKit/537.36 (KHTML, like Gecko) Chrome/74.0.3729.131 Safari/537.36"",""on_chrome"":true,""on_mobile"":false,""language"":""en-US"",""screen_resolution"":[1440,900],""platform"":""MacIntel"",""timezone"":""Europe/Berlin""}","11","4387.280000000645","","","1558019502186","4","","Würzburg","[]","Würzburg","true","false","4996.564999997616"
"","html-voicekey-response","42","302480","0.0-4.38-0.38","o8j2qwk3vbdupkx","{""user_agent"":""Mozilla/5.0 (Macintosh; Intel Mac OS X 10_14_4) AppleWebKit/537.36 (KHTML, like Gecko) Chrome/74.0.3729.131 Safari/537.36"",""on_chrome"":true,""on_mobile"":false,""language"":""en-US"",""screen_resolution"":[1440,900],""platform"":""MacIntel"",""timezone"":""Europe/Berlin""}","11","4453.805000002647","","","1558019507787","5","","","[]","Aachen","false","false","6912.684999999299"
"","html-voicekey-response","43","306777","0.0-4.39-0.39","o8j2qwk3vbdupkx","{""user_agent"":""Mozilla/5.0 (Macintosh; Intel Mac OS X 10_14_4) AppleWebKit/537.36 (KHTML, like Gecko) Chrome/74.0.3729.131 Safari/537.36"",""on_chrome"":true,""on_mobile"":false,""language"":""en-US"",""screen_resolution"":[1440,900],""platform"":""MacIntel"",""timezone"":""Europe/Berlin""}","11","3167.4600000022097","","","1558019518703","7","","Erfurt","[]","Erfurt","true","false","3692.8550000011455"
"","html-voicekey-response","44","310482","0.0-4.40-0.40","o8j2qwk3vbdupkx","{""user_agent"":""Mozilla/5.0 (Macintosh; Intel Mac OS X 10_14_4) AppleWebKit/537.36 (KHTML, like Gecko) Chrome/74.0.3729.131 Safari/537.36"",""on_chrome"":true,""on_mobile"":false,""language"":""en-US"",""screen_resolution"":[1440,900],""platform"":""MacIntel"",""timezone"":""Europe/Berlin""}","11","2311.279999999772","","","1558019523000","12","","Dessau","[]","Dessau","true","true","3102.1250000012806"
"","html-voicekey-response","45","324449","0.0-4.41-0.41","o8j2qwk3vbdupkx","{""user_agent"":""Mozilla/5.0 (Macintosh; Intel Mac OS X 10_14_4) AppleWebKit/537.36 (KHTML, like Gecko) Chrome/74.0.3729.131 Safari/537.36"",""on_chrome"":true,""on_mobile"":false,""language"":""en-US"",""screen_resolution"":[1440,900],""platform"":""MacIntel"",""timezone"":""Europe/Berlin""}","11","8954.994999998109","","","1558019526705","5","","","[]","Aachen","false","false","9962.73999999906"
"","html-voicekey-response","46","326908","0.0-4.42-0.42","o8j2qwk3vbdupkx","{""user_agent"":""Mozilla/5.0 (Macintosh; Intel Mac OS X 10_14_4) AppleWebKit/537.36 (KHTML, like Gecko) Chrome/74.0.3729.131 Safari/537.36"",""on_chrome"":true,""on_mobile"":false,""language"":""en-US"",""screen_resolution"":[1440,900],""platform"":""MacIntel"",""timezone"":""Europe/Berlin""}","11","1376.34499999861","","","1558019540675","12","","Dessau","[]","Dessau","true","false","1852.390000000014"
"","html-voicekey-response","47","335108","0.0-4.43-0.43","o8j2qwk3vbdupkx","{""user_agent"":""Mozilla/5.0 (Macintosh; Intel Mac OS X 10_14_4) AppleWebKit/537.36 (KHTML, like Gecko) Chrome/74.0.3729.131 Safari/537.36"",""on_chrome"":true,""on_mobile"":false,""language"":""en-US"",""screen_resolution"":[1440,900],""platform"":""MacIntel"",""timezone"":""Europe/Berlin""}","11","2903.0900000014576","","","1558019543132","4","","","[]","Würzburg","false","false","4195.544999998645"
"","html-voicekey-response","48","338416","0.0-4.44-0.44","o8j2qwk3vbdupkx","{""user_agent"":""Mozilla/5.0 (Macintosh; Intel Mac OS X 10_14_4) AppleWebKit/537.36 (KHTML, like Gecko) Chrome/74.0.3729.131 Safari/537.36"",""on_chrome"":true,""on_mobile"":false,""language"":""en-US"",""screen_resolution"":[1440,900],""platform"":""MacIntel"",""timezone"":""Europe/Berlin""}","11","1927.8800000009128","","","1558019551333","7","","Erfurt","[]","Erfurt","true","false","2702.3499999995693"
"","html-voicekey-response","49","342217","0.0-4.45-0.45","o8j2qwk3vbdupkx","{""user_agent"":""Mozilla/5.0 (Macintosh; Intel Mac OS X 10_14_4) AppleWebKit/537.36 (KHTML, like Gecko) Chrome/74.0.3729.131 Safari/537.36"",""on_chrome"":true,""on_mobile"":false,""language"":""en-US"",""screen_resolution"":[1440,900],""platform"":""MacIntel"",""timezone"":""Europe/Berlin""}","11","2169.7450000009035","","","1558019554641","13","","Chemnitz","[]","Chemnitz","true","true","3195.2799999999115"
"","html-voicekey-response","50","345812","0.0-4.46-0.46","o8j2qwk3vbdupkx","{""user_agent"":""Mozilla/5.0 (Macintosh; Intel Mac OS X 10_14_4) AppleWebKit/537.36 (KHTML, like Gecko) Chrome/74.0.3729.131 Safari/537.36"",""on_chrome"":true,""on_mobile"":false,""language"":""en-US"",""screen_resolution"":[1440,900],""platform"":""MacIntel"",""timezone"":""Europe/Berlin""}","11","2248.8049999972923","","","1558019558441","14","","Potsdam","[]","Potsdam","true","true","2991.2249999979394"
"","html-voicekey-response","51","347862","0.0-4.47-0.47","o8j2qwk3vbdupkx","{""user_agent"":""Mozilla/5.0 (Macintosh; Intel Mac OS X 10_14_4) AppleWebKit/537.36 (KHTML, like Gecko) Chrome/74.0.3729.131 Safari/537.36"",""on_chrome"":true,""on_mobile"":false,""language"":""en-US"",""screen_resolution"":[1440,900],""platform"":""MacIntel"",""timezone"":""Europe/Berlin""}","11","720.6399999975459","","","1558019562035","13","","Chemnitz","[]","Chemnitz","true","false","1447.0299999993294"
"","html-voicekey-response","52","350578","0.0-4.48-0.48","o8j2qwk3vbdupkx","{""user_agent"":""Mozilla/5.0 (Macintosh; Intel Mac OS X 10_14_4) AppleWebKit/537.36 (KHTML, like Gecko) Chrome/74.0.3729.131 Safari/537.36"",""on_chrome"":true,""on_mobile"":false,""language"":""en-US"",""screen_resolution"":[1440,900],""platform"":""MacIntel"",""timezone"":""Europe/Berlin""}","11","1353.9850000032225","","","1558019564085","14","","Potsdam","[]","Potsdam","true","false","2112.890000000305"
"","html-voicekey-response","53","359881","0.0-4.49-0.49","o8j2qwk3vbdupkx","{""user_agent"":""Mozilla/5.0 (Macintosh; Intel Mac OS X 10_14_4) AppleWebKit/537.36 (KHTML, like Gecko) Chrome/74.0.3729.131 Safari/537.36"",""on_chrome"":true,""on_mobile"":false,""language"":""en-US"",""screen_resolution"":[1440,900],""platform"":""MacIntel"",""timezone"":""Europe/Berlin""}","11","3872.2749999995344","","","1558019566801","5","","","[]","Aachen","false","false","5297.5750000005355"
"","html-voicekey-response","54","362620","0.0-4.50-0.50","o8j2qwk3vbdupkx","{""user_agent"":""Mozilla/5.0 (Macintosh; Intel Mac OS X 10_14_4) AppleWebKit/537.36 (KHTML, like Gecko) Chrome/74.0.3729.131 Safari/537.36"",""on_chrome"":true,""on_mobile"":false,""language"":""en-US"",""screen_resolution"":[1440,900],""platform"":""MacIntel"",""timezone"":""Europe/Berlin""}","11","1327.3549999992597","","","1558019576104","15","","Nürnberg","[]","Nürnberg","true","true","2136.224999998347"
"","html-voicekey-response","55","379053","0.0-4.51-0.51","o8j2qwk3vbdupkx","{""user_agent"":""Mozilla/5.0 (Macintosh; Intel Mac OS X 10_14_4) AppleWebKit/537.36 (KHTML, like Gecko) Chrome/74.0.3729.131 Safari/537.36"",""on_chrome"":true,""on_mobile"":false,""language"":""en-US"",""screen_resolution"":[1440,900],""platform"":""MacIntel"",""timezone"":""Europe/Berlin""}","11","11652.715000001865","","","1558019578844","4","","","[]","Würzburg","false","false","12429.1550000016"
"","html-voicekey-response","56","401586","0.0-4.52-0.52","o8j2qwk3vbdupkx","{""user_agent"":""Mozilla/5.0 (Macintosh; Intel Mac OS X 10_14_4) AppleWebKit/537.36 (KHTML, like Gecko) Chrome/74.0.3729.131 Safari/537.36"",""on_chrome"":true,""on_mobile"":false,""language"":""en-US"",""screen_resolution"":[1440,900],""platform"":""MacIntel"",""timezone"":""Europe/Berlin""}","11","17904.404999999133","","","1558019595276","15","","","[]","Nürnberg","false","false","18529.704999997164"
"","html-voicekey-response","57","404239","0.0-4.53-0.53","o8j2qwk3vbdupkx","{""user_agent"":""Mozilla/5.0 (Macintosh; Intel Mac OS X 10_14_4) AppleWebKit/537.36 (KHTML, like Gecko) Chrome/74.0.3729.131 Safari/537.36"",""on_chrome"":true,""on_mobile"":false,""language"":""en-US"",""screen_resolution"":[1440,900],""platform"":""MacIntel"",""timezone"":""Europe/Berlin""}","11","1441.0999999980909","","","1558019617809","12","","Dessau","[]","Dessau","true","false","2049.960000000312"
"","html-voicekey-response","58","410057","0.0-4.54-0.54","o8j2qwk3vbdupkx","{""user_agent"":""Mozilla/5.0 (Macintosh; Intel Mac OS X 10_14_4) AppleWebKit/537.36 (KHTML, like Gecko) Chrome/74.0.3729.131 Safari/537.36"",""on_chrome"":true,""on_mobile"":false,""language"":""en-US"",""screen_resolution"":[1440,900],""platform"":""MacIntel"",""timezone"":""Europe/Berlin""}","11","4571.405000000412","","","1558019620462","14","","Potsdam","[]","Potsdam","true","false","5213.7299999994575"
"","html-voicekey-response","59","412180","0.0-4.55-0.55","o8j2qwk3vbdupkx","{""user_agent"":""Mozilla/5.0 (Macintosh; Intel Mac OS X 10_14_4) AppleWebKit/537.36 (KHTML, like Gecko) Chrome/74.0.3729.131 Safari/537.36"",""on_chrome"":true,""on_mobile"":false,""language"":""en-US"",""screen_resolution"":[1440,900],""platform"":""MacIntel"",""timezone"":""Europe/Berlin""}","11","100","","","1558019626280","13","","Chemnitz","[]","Chemnitz","true","false","1520.55499999912"
"","html-voicekey-response","60","415247","0.0-4.56-0.56","o8j2qwk3vbdupkx","{""user_agent"":""Mozilla/5.0 (Macintosh; Intel Mac OS X 10_14_4) AppleWebKit/537.36 (KHTML, like Gecko) Chrome/74.0.3729.131 Safari/537.36"",""on_chrome"":true,""on_mobile"":false,""language"":""en-US"",""screen_resolution"":[1440,900],""platform"":""MacIntel"",""timezone"":""Europe/Berlin""}","11","1771.6549999984913","","","1558019628404","7","","Erfurt","[]","Erfurt","true","false","2463.3099999991828"
"","html-voicekey-response","61","425030","0.0-4.57-0.57","o8j2qwk3vbdupkx","{""user_agent"":""Mozilla/5.0 (Macintosh; Intel Mac OS X 10_14_4) AppleWebKit/537.36 (KHTML, like Gecko) Chrome/74.0.3729.131 Safari/537.36"",""on_chrome"":true,""on_mobile"":false,""language"":""en-US"",""screen_resolution"":[1440,900],""platform"":""MacIntel"",""timezone"":""Europe/Berlin""}","11","8521.11500000119","","","1558019631470","5","","Aachen","[]","Aachen","true","false","9179.7900000019"
"","html-voicekey-response","62","433110","0.0-4.58-0.58","o8j2qwk3vbdupkx","{""user_agent"":""Mozilla/5.0 (Macintosh; Intel Mac OS X 10_14_4) AppleWebKit/537.36 (KHTML, like Gecko) Chrome/74.0.3729.131 Safari/537.36"",""on_chrome"":true,""on_mobile"":false,""language"":""en-US"",""screen_resolution"":[1440,900],""platform"":""MacIntel"",""timezone"":""Europe/Berlin""}","11","6984.2850000003","","","1558019641253","4","","Würzburg","[]","Würzburg","true","false","7475.689999999304"
"","html-voicekey-response","63","466009","0.0-4.59-0.59","o8j2qwk3vbdupkx","{""user_agent"":""Mozilla/5.0 (Macintosh; Intel Mac OS X 10_14_4) AppleWebKit/537.36 (KHTML, like Gecko) Chrome/74.0.3729.131 Safari/537.36"",""on_chrome"":true,""on_mobile"":false,""language"":""en-US"",""screen_resolution"":[1440,900],""platform"":""MacIntel"",""timezone"":""Europe/Berlin""}","11","Infinity","","","1558019649334","5","","","[]","Aachen","false","false","28894.79500000016"
"","html-voicekey-response","64","470925","0.0-4.60-0.60","o8j2qwk3vbdupkx","{""user_agent"":""Mozilla/5.0 (Macintosh; Intel Mac OS X 10_14_4) AppleWebKit/537.36 (KHTML, like Gecko) Chrome/74.0.3729.131 Safari/537.36"",""on_chrome"":true,""on_mobile"":false,""language"":""en-US"",""screen_resolution"":[1440,900],""platform"":""MacIntel"",""timezone"":""Europe/Berlin""}","11","3153.8600000001957","","","1558019682233","4","","Würzburg","[]","Würzburg","true","false","4311.7700000002515"
"","html-voicekey-response","65","487200","0.0-4.61-0.61","o8j2qwk3vbdupkx","{""user_agent"":""Mozilla/5.0 (Macintosh; Intel Mac OS X 10_14_4) AppleWebKit/537.36 (KHTML, like Gecko) Chrome/74.0.3729.131 Safari/537.36"",""on_chrome"":true,""on_mobile"":false,""language"":""en-US"",""screen_resolution"":[1440,900],""platform"":""MacIntel"",""timezone"":""Europe/Berlin""}","11","15003.389999999757","","","1558019687149","5","","Aachen","[]","Aachen","true","false","15670.179999997374"
"","html-voicekey-response","66","507046","0.0-4.62-0.62","o8j2qwk3vbdupkx","{""user_agent"":""Mozilla/5.0 (Macintosh; Intel Mac OS X 10_14_4) AppleWebKit/537.36 (KHTML, like Gecko) Chrome/74.0.3729.131 Safari/537.36"",""on_chrome"":true,""on_mobile"":false,""language"":""en-US"",""screen_resolution"":[1440,900],""platform"":""MacIntel"",""timezone"":""Europe/Berlin""}","11","13514.769999999588","","","1558019703424","15","","","[]","Nürnberg","false","false","15840.185000000929"
"","html-voicekey-response","67","516674","0.0-4.63-0.63","o8j2qwk3vbdupkx","{""user_agent"":""Mozilla/5.0 (Macintosh; Intel Mac OS X 10_14_4) AppleWebKit/537.36 (KHTML, like Gecko) Chrome/74.0.3729.131 Safari/537.36"",""on_chrome"":true,""on_mobile"":false,""language"":""en-US"",""screen_resolution"":[1440,900],""platform"":""MacIntel"",""timezone"":""Europe/Berlin""}","11","8344.834999997844","","","1558019723271","5","","Aachen","[]","Aachen","true","false","9020.614999997604"
"","html-voicekey-response","68","524696","0.0-4.64-0.64","o8j2qwk3vbdupkx","{""user_agent"":""Mozilla/5.0 (Macintosh; Intel Mac OS X 10_14_4) AppleWebKit/537.36 (KHTML, like Gecko) Chrome/74.0.3729.131 Safari/537.36"",""on_chrome"":true,""on_mobile"":false,""language"":""en-US"",""screen_resolution"":[1440,900],""platform"":""MacIntel"",""timezone"":""Europe/Berlin""}","11","2575.8500000027475","","","1558019732898","4","","","[]","Würzburg","false","false","4017.200000002049"
"","html-voicekey-response","69","527280","0.0-4.65-0.65","o8j2qwk3vbdupkx","{""user_agent"":""Mozilla/5.0 (Macintosh; Intel Mac OS X 10_14_4) AppleWebKit/537.36 (KHTML, like Gecko) Chrome/74.0.3729.131 Safari/537.36"",""on_chrome"":true,""on_mobile"":false,""language"":""en-US"",""screen_resolution"":[1440,900],""platform"":""MacIntel"",""timezone"":""Europe/Berlin""}","11","1402.3850000028965","","","1558019740922","14","","Potsdam","[]","Potsdam","true","false","1977.3700000005774"
"","html-voicekey-response","70","536992","0.0-4.66-0.66","o8j2qwk3vbdupkx","{""user_agent"":""Mozilla/5.0 (Macintosh; Intel Mac OS X 10_14_4) AppleWebKit/537.36 (KHTML, like Gecko) Chrome/74.0.3729.131 Safari/537.36"",""on_chrome"":true,""on_mobile"":false,""language"":""en-US"",""screen_resolution"":[1440,900],""platform"":""MacIntel"",""timezone"":""Europe/Berlin""}","11","8464.785000001755","","","1558019743505","5","","Aachen","[]","Aachen","true","false","9107.050000002375"
"","html-voicekey-response","71","540465","0.0-4.67-0.67","o8j2qwk3vbdupkx","{""user_agent"":""Mozilla/5.0 (Macintosh; Intel Mac OS X 10_14_4) AppleWebKit/537.36 (KHTML, like Gecko) Chrome/74.0.3729.131 Safari/537.36"",""on_chrome"":true,""on_mobile"":false,""language"":""en-US"",""screen_resolution"":[1440,900],""platform"":""MacIntel"",""timezone"":""Europe/Berlin""}","11","2310.895000000461","","","1558019753216","4","","Würzburg","[]","Würzburg","true","false","2869.6650000020163"
"","html-voicekey-response","72","542948","0.0-4.68-0.68","o8j2qwk3vbdupkx","{""user_agent"":""Mozilla/5.0 (Macintosh; Intel Mac OS X 10_14_4) AppleWebKit/537.36 (KHTML, like Gecko) Chrome/74.0.3729.131 Safari/537.36"",""on_chrome"":true,""on_mobile"":false,""language"":""en-US"",""screen_resolution"":[1440,900],""platform"":""MacIntel"",""timezone"":""Europe/Berlin""}","11","1137.075000000396","","","1558019756689","5","","Aachen","[]","Aachen","true","false","1878.6599999985192"
"","html-voicekey-response","73","545898","0.0-4.69-0.69","o8j2qwk3vbdupkx","{""user_agent"":""Mozilla/5.0 (Macintosh; Intel Mac OS X 10_14_4) AppleWebKit/537.36 (KHTML, like Gecko) Chrome/74.0.3729.131 Safari/537.36"",""on_chrome"":true,""on_mobile"":false,""language"":""en-US"",""screen_resolution"":[1440,900],""platform"":""MacIntel"",""timezone"":""Europe/Berlin""}","11","1770.5599999988685","","","1558019759172","7","","Erfurt","[]","Erfurt","true","false","2345.3450000014855"
"","html-voicekey-response","74","553066","0.0-4.70-0.70","o8j2qwk3vbdupkx","{""user_agent"":""Mozilla/5.0 (Macintosh; Intel Mac OS X 10_14_4) AppleWebKit/537.36 (KHTML, like Gecko) Chrome/74.0.3729.131 Safari/537.36"",""on_chrome"":true,""on_mobile"":false,""language"":""en-US"",""screen_resolution"":[1440,900],""platform"":""MacIntel"",""timezone"":""Europe/Berlin""}","11","6037.020000001392","","","1558019762123","15","","Nürnberg","[]","Nürnberg","true","false","6562.659999999567"
"","html-voicekey-response","75","555292","0.0-4.71-0.71","o8j2qwk3vbdupkx","{""user_agent"":""Mozilla/5.0 (Macintosh; Intel Mac OS X 10_14_4) AppleWebKit/537.36 (KHTML, like Gecko) Chrome/74.0.3729.131 Safari/537.36"",""on_chrome"":true,""on_mobile"":false,""language"":""en-US"",""screen_resolution"":[1440,900],""platform"":""MacIntel"",""timezone"":""Europe/Berlin""}","11","1046.7499999993947","","","1558019769290","2","","Berlin","[]","Berlin","true","false","1622.189999998198"
"","html-voicekey-response","76","589298","0.0-4.72-0.72","o8j2qwk3vbdupkx","{""user_agent"":""Mozilla/5.0 (Macintosh; Intel Mac OS X 10_14_4) AppleWebKit/537.36 (KHTML, like Gecko) Chrome/74.0.3729.131 Safari/537.36"",""on_chrome"":true,""on_mobile"":false,""language"":""en-US"",""screen_resolution"":[1440,900],""platform"":""MacIntel"",""timezone"":""Europe/Berlin""}","11","Infinity","","","1558019771515","11","","","[]","Alfeld","false","false","Infinity"
"","html-voicekey-response","77","595398","0.0-4.73-0.73","o8j2qwk3vbdupkx","{""user_agent"":""Mozilla/5.0 (Macintosh; Intel Mac OS X 10_14_4) AppleWebKit/537.36 (KHTML, like Gecko) Chrome/74.0.3729.131 Safari/537.36"",""on_chrome"":true,""on_mobile"":false,""language"":""en-US"",""screen_resolution"":[1440,900],""platform"":""MacIntel"",""timezone"":""Europe/Berlin""}","11","Infinity","","","1558019805523","5","","Aachen","[]","Aachen","true","false","5495.265000001411"
"","html-voicekey-response","78","598407","0.0-4.74-0.74","o8j2qwk3vbdupkx","{""user_agent"":""Mozilla/5.0 (Macintosh; Intel Mac OS X 10_14_4) AppleWebKit/537.36 (KHTML, like Gecko) Chrome/74.0.3729.131 Safari/537.36"",""on_chrome"":true,""on_mobile"":false,""language"":""en-US"",""screen_resolution"":[1440,900],""platform"":""MacIntel"",""timezone"":""Europe/Berlin""}","11","1786.7950000016485","","","1558019811623","4","","Würzburg","[]","Würzburg","true","false","2403.7950000019046"
"","html-voicekey-response","79","601006","0.0-4.75-0.75","o8j2qwk3vbdupkx","{""user_agent"":""Mozilla/5.0 (Macintosh; Intel Mac OS X 10_14_4) AppleWebKit/537.36 (KHTML, like Gecko) Chrome/74.0.3729.131 Safari/537.36"",""on_chrome"":true,""on_mobile"":false,""language"":""en-US"",""screen_resolution"":[1440,900],""platform"":""MacIntel"",""timezone"":""Europe/Berlin""}","11","1453.344999999716","","","1558019814632","15","","Nürnberg","[]","Nürnberg","true","false","1994.7500000016298"
"","html-voicekey-response","80","605323","0.0-4.76-0.76","o8j2qwk3vbdupkx","{""user_agent"":""Mozilla/5.0 (Macintosh; Intel Mac OS X 10_14_4) AppleWebKit/537.36 (KHTML, like Gecko) Chrome/74.0.3729.131 Safari/537.36"",""on_chrome"":true,""on_mobile"":false,""language"":""en-US"",""screen_resolution"":[1440,900],""platform"":""MacIntel"",""timezone"":""Europe/Berlin""}","11","3070.1600000009407","","","1558019817231","5","","Aachen","[]","Aachen","true","false","3712.7199999995064"
"","html-voicekey-response","81","629540","0.0-4.77-0.77","o8j2qwk3vbdupkx","{""user_agent"":""Mozilla/5.0 (Macintosh; Intel Mac OS X 10_14_4) AppleWebKit/537.36 (KHTML, like Gecko) Chrome/74.0.3729.131 Safari/537.36"",""on_chrome"":true,""on_mobile"":false,""language"":""en-US"",""screen_resolution"":[1440,900],""platform"":""MacIntel"",""timezone"":""Europe/Berlin""}","11","18818.849999997743","","","1558019821548","3","","","[]","Ingolstadt","false","false","20209.94999999681"
"","html-voicekey-response","82","635629","0.0-4.78-0.78","o8j2qwk3vbdupkx","{""user_agent"":""Mozilla/5.0 (Macintosh; Intel Mac OS X 10_14_4) AppleWebKit/537.36 (KHTML, like Gecko) Chrome/74.0.3729.131 Safari/537.36"",""on_chrome"":true,""on_mobile"":false,""language"":""en-US"",""screen_resolution"":[1440,900],""platform"":""MacIntel"",""timezone"":""Europe/Berlin""}","11","5024.334999999823","","","1558019845766","5","","Aachen","[]","Aachen","true","false","5481.635000000009"
"","html-voicekey-response","83","662270","0.0-4.79-0.79","o8j2qwk3vbdupkx","{""user_agent"":""Mozilla/5.0 (Macintosh; Intel Mac OS X 10_14_4) AppleWebKit/537.36 (KHTML, like Gecko) Chrome/74.0.3729.131 Safari/537.36"",""on_chrome"":true,""on_mobile"":false,""language"":""en-US"",""screen_resolution"":[1440,900],""platform"":""MacIntel"",""timezone"":""Europe/Berlin""}","11","14626.364999998104","","","1558019851854","8","","","[]","Gotha","false","false","22635.41500000062"
"","html-voicekey-response","84","665962","0.0-4.80-0.80","o8j2qwk3vbdupkx","{""user_agent"":""Mozilla/5.0 (Macintosh; Intel Mac OS X 10_14_4) AppleWebKit/537.36 (KHTML, like Gecko) Chrome/74.0.3729.131 Safari/537.36"",""on_chrome"":true,""on_mobile"":false,""language"":""en-US"",""screen_resolution"":[1440,900],""platform"":""MacIntel"",""timezone"":""Europe/Berlin""}","11","2447.0249999993016","","","1558019878496","5","","Aachen","[]","Aachen","true","false","3085.5049999991897"
"","html-voicekey-response","85","669393","0.0-4.81-0.81","o8j2qwk3vbdupkx","{""user_agent"":""Mozilla/5.0 (Macintosh; Intel Mac OS X 10_14_4) AppleWebKit/537.36 (KHTML, like Gecko) Chrome/74.0.3729.131 Safari/537.36"",""on_chrome"":true,""on_mobile"":false,""language"":""en-US"",""screen_resolution"":[1440,900],""platform"":""MacIntel"",""timezone"":""Europe/Berlin""}","11","2217.9049999994227","","","1558019882187","4","","Würzburg","[]","Würzburg","true","false","2825.84499999939"
"","html-voicekey-response","86","676478","0.0-4.82-0.82","o8j2qwk3vbdupkx","{""user_agent"":""Mozilla/5.0 (Macintosh; Intel Mac OS X 10_14_4) AppleWebKit/537.36 (KHTML, like Gecko) Chrome/74.0.3729.131 Safari/537.36"",""on_chrome"":true,""on_mobile"":false,""language"":""en-US"",""screen_resolution"":[1440,900],""platform"":""MacIntel"",""timezone"":""Europe/Berlin""}","11","5804.514999997778","","","1558019885618","11","","Alfeld","[]","Alfeld","true","false","6479.344999999739"
"","html-voicekey-response","87","679352","0.0-4.83-0.83","o8j2qwk3vbdupkx","{""user_agent"":""Mozilla/5.0 (Macintosh; Intel Mac OS X 10_14_4) AppleWebKit/537.36 (KHTML, like Gecko) Chrome/74.0.3729.131 Safari/537.36"",""on_chrome"":true,""on_mobile"":false,""language"":""en-US"",""screen_resolution"":[1440,900],""platform"":""MacIntel"",""timezone"":""Europe/Berlin""}","11","1775.6600000009407","","","1558019892704","5","","Aachen","[]","Aachen","true","false","2266.575000001467"
"","html-voicekey-response","88","684952","0.0-4.84-0.84","o8j2qwk3vbdupkx","{""user_agent"":""Mozilla/5.0 (Macintosh; Intel Mac OS X 10_14_4) AppleWebKit/537.36 (KHTML, like Gecko) Chrome/74.0.3729.131 Safari/537.36"",""on_chrome"":true,""on_mobile"":false,""language"":""en-US"",""screen_resolution"":[1440,900],""platform"":""MacIntel"",""timezone"":""Europe/Berlin""}","11","4435.84999999972","","","1558019895577","1","","Magdeburg","[]","Magdeburg","true","false","4995.100000000093"
"","html-voicekey-response","89","687234","0.0-4.85-0.85","o8j2qwk3vbdupkx","{""user_agent"":""Mozilla/5.0 (Macintosh; Intel Mac OS X 10_14_4) AppleWebKit/537.36 (KHTML, like Gecko) Chrome/74.0.3729.131 Safari/537.36"",""on_chrome"":true,""on_mobile"":false,""language"":""en-US"",""screen_resolution"":[1440,900],""platform"":""MacIntel"",""timezone"":""Europe/Berlin""}","11","1150.1999999980676","","","1558019901179","6","","Dresden","[]","Dresden","true","false","1675.4750000000931"
"","html-voicekey-response","90","699879","0.0-4.86-0.86","o8j2qwk3vbdupkx","{""user_agent"":""Mozilla/5.0 (Macintosh; Intel Mac OS X 10_14_4) AppleWebKit/537.36 (KHTML, like Gecko) Chrome/74.0.3729.131 Safari/537.36"",""on_chrome"":true,""on_mobile"":false,""language"":""en-US"",""screen_resolution"":[1440,900],""platform"":""MacIntel"",""timezone"":""Europe/Berlin""}","11","Infinity","","","1558019903460","10","","Heidelberg","[]","Heidelberg","true","false","12038.82499999972"
"","html-voicekey-response","91","702587","0.0-4.87-0.87","o8j2qwk3vbdupkx","{""user_agent"":""Mozilla/5.0 (Macintosh; Intel Mac OS X 10_14_4) AppleWebKit/537.36 (KHTML, like Gecko) Chrome/74.0.3729.131 Safari/537.36"",""on_chrome"":true,""on_mobile"":false,""language"":""en-US"",""screen_resolution"":[1440,900],""platform"":""MacIntel"",""timezone"":""Europe/Berlin""}","11","1627.0199999980164","","","1558019916105","5","","Aachen","[]","Aachen","true","false","2102.8449999976438"
"","html-voicekey-response","92","704837","0.0-4.88-0.88","o8j2qwk3vbdupkx","{""user_agent"":""Mozilla/5.0 (Macintosh; Intel Mac OS X 10_14_4) AppleWebKit/537.36 (KHTML, like Gecko) Chrome/74.0.3729.131 Safari/537.36"",""on_chrome"":true,""on_mobile"":false,""language"":""en-US"",""screen_resolution"":[1440,900],""platform"":""MacIntel"",""timezone"":""Europe/Berlin""}","11","1184.465000000177","","","1558019918814","8","","Gotha","[]","Gotha","true","false","1643.1750000010943"
"","html-voicekey-response","93","707170","0.0-4.89-0.89","o8j2qwk3vbdupkx","{""user_agent"":""Mozilla/5.0 (Macintosh; Intel Mac OS X 10_14_4) AppleWebKit/537.36 (KHTML, like Gecko) Chrome/74.0.3729.131 Safari/537.36"",""on_chrome"":true,""on_mobile"":false,""language"":""en-US"",""screen_resolution"":[1440,900],""platform"":""MacIntel"",""timezone"":""Europe/Berlin""}","11","1201.3900000001072","","","1558019921063","9","","München","[]","München","true","false","1727.2849999972386"
"","html-voicekey-response","94","730856","0.0-4.90-0.90","o8j2qwk3vbdupkx","{""user_agent"":""Mozilla/5.0 (Macintosh; Intel Mac OS X 10_14_4) AppleWebKit/537.36 (KHTML, like Gecko) Chrome/74.0.3729.131 Safari/537.36"",""on_chrome"":true,""on_mobile"":false,""language"":""en-US"",""screen_resolution"":[1440,900],""platform"":""MacIntel"",""timezone"":""Europe/Berlin""}","11","16351.66999999804","","","1558019923396","3","","","[]","Ingolstadt","false","false","19676.830000000307"
"","html-voicekey-response","95","733856","0.0-4.91-0.91","o8j2qwk3vbdupkx","{""user_agent"":""Mozilla/5.0 (Macintosh; Intel Mac OS X 10_14_4) AppleWebKit/537.36 (KHTML, like Gecko) Chrome/74.0.3729.131 Safari/537.36"",""on_chrome"":true,""on_mobile"":false,""language"":""en-US"",""screen_resolution"":[1440,900],""platform"":""MacIntel"",""timezone"":""Europe/Berlin""}","11","1851.2700000008103","","","1558019947082","4","","Würzburg","[]","Würzburg","true","false","2394.0750000001863"
"","html-voicekey-response","96","758346","0.0-4.92-0.92","o8j2qwk3vbdupkx","{""user_agent"":""Mozilla/5.0 (Macintosh; Intel Mac OS X 10_14_4) AppleWebKit/537.36 (KHTML, like Gecko) Chrome/74.0.3729.131 Safari/537.36"",""on_chrome"":true,""on_mobile"":false,""language"":""en-US"",""screen_resolution"":[1440,900],""platform"":""MacIntel"",""timezone"":""Europe/Berlin""}","11","18467.230000000076","","","1558019950082","15","","","[]","Nürnberg","false","false","20483.144999998272"
"","html-voicekey-response","97","760880","0.0-4.93-0.93","o8j2qwk3vbdupkx","{""user_agent"":""Mozilla/5.0 (Macintosh; Intel Mac OS X 10_14_4) AppleWebKit/537.36 (KHTML, like Gecko) Chrome/74.0.3729.131 Safari/537.36"",""on_chrome"":true,""on_mobile"":false,""language"":""en-US"",""screen_resolution"":[1440,900],""platform"":""MacIntel"",""timezone"":""Europe/Berlin""}","11","1468.8299999995857","","","1558019974572","5","","Aachen","[]","Aachen","true","false","1928.0749999997206"
"","html-voicekey-response","98","770662","0.0-4.94-0.94","o8j2qwk3vbdupkx","{""user_agent"":""Mozilla/5.0 (Macintosh; Intel Mac OS X 10_14_4) AppleWebKit/537.36 (KHTML, like Gecko) Chrome/74.0.3729.131 Safari/537.36"",""on_chrome"":true,""on_mobile"":false,""language"":""en-US"",""screen_resolution"":[1440,900],""platform"":""MacIntel"",""timezone"":""Europe/Berlin""}","11","8133.005000001378","","","1558019977107","14","","Potsdam","[]","Potsdam","true","false","9174.869999998948"
"","html-voicekey-response","99","781042","0.0-4.95-0.95","o8j2qwk3vbdupkx","{""user_agent"":""Mozilla/5.0 (Macintosh; Intel Mac OS X 10_14_4) AppleWebKit/537.36 (KHTML, like Gecko) Chrome/74.0.3729.131 Safari/537.36"",""on_chrome"":true,""on_mobile"":false,""language"":""en-US"",""screen_resolution"":[1440,900],""platform"":""MacIntel"",""timezone"":""Europe/Berlin""}","11","3697.3049999995624","","","1558019986890","15","","","[]","Nürnberg","false","false","6372.230000000796"
"","html-voicekey-response","100","783453","0.0-4.96-0.96","o8j2qwk3vbdupkx","{""user_agent"":""Mozilla/5.0 (Macintosh; Intel Mac OS X 10_14_4) AppleWebKit/537.36 (KHTML, like Gecko) Chrome/74.0.3729.131 Safari/537.36"",""on_chrome"":true,""on_mobile"":false,""language"":""en-US"",""screen_resolution"":[1440,900],""platform"":""MacIntel"",""timezone"":""Europe/Berlin""}","11","1184.1699999985053","","","1558019997269","1","","Magdeburg","[]","Magdeburg","true","false","1804.4499999996042"
"","html-voicekey-response","101","785937","0.0-4.97-0.97","o8j2qwk3vbdupkx","{""user_agent"":""Mozilla/5.0 (Macintosh; Intel Mac OS X 10_14_4) AppleWebKit/537.36 (KHTML, like Gecko) Chrome/74.0.3729.131 Safari/537.36"",""on_chrome"":true,""on_mobile"":false,""language"":""en-US"",""screen_resolution"":[1440,900],""platform"":""MacIntel"",""timezone"":""Europe/Berlin""}","11","1318.854999999376","","","1558019999680","7","","Erfurt","[]","Erfurt","true","false","1877.380000001751"
"","html-voicekey-response","102","788486","0.0-4.98-0.98","o8j2qwk3vbdupkx","{""user_agent"":""Mozilla/5.0 (Macintosh; Intel Mac OS X 10_14_4) AppleWebKit/537.36 (KHTML, like Gecko) Chrome/74.0.3729.131 Safari/537.36"",""on_chrome"":true,""on_mobile"":false,""language"":""en-US"",""screen_resolution"":[1440,900],""platform"":""MacIntel"",""timezone"":""Europe/Berlin""}","11","1417.8899999985938","","","1558020002164","10","","Heidelberg","[]","Heidelberg","true","false","1942.6700000003912"
"","html-voicekey-response","103","791037","0.0-4.99-0.99","o8j2qwk3vbdupkx","{""user_agent"":""Mozilla/5.0 (Macintosh; Intel Mac OS X 10_14_4) AppleWebKit/537.36 (KHTML, like Gecko) Chrome/74.0.3729.131 Safari/537.36"",""on_chrome"":true,""on_mobile"":false,""language"":""en-US"",""screen_resolution"":[1440,900],""platform"":""MacIntel"",""timezone"":""Europe/Berlin""}","11","1467.7900000003633","","","1558020004714","13","","Chemnitz","[]","Chemnitz","true","false","1941.9200000010896"
"","html-voicekey-response","104","795404","0.0-4.100-0.100","o8j2qwk3vbdupkx","{""user_agent"":""Mozilla/5.0 (Macintosh; Intel Mac OS X 10_14_4) AppleWebKit/537.36 (KHTML, like Gecko) Chrome/74.0.3729.131 Safari/537.36"",""on_chrome"":true,""on_mobile"":false,""language"":""en-US"",""screen_resolution"":[1440,900],""platform"":""MacIntel"",""timezone"":""Europe/Berlin""}","11","3269.0250000031433","","","1558020007263","11","","Alfeld","[]","Alfeld","true","false","3760.2700000024633"
"","html-voicekey-response","105","798478","0.0-4.101-0.101","o8j2qwk3vbdupkx","{""user_agent"":""Mozilla/5.0 (Macintosh; Intel Mac OS X 10_14_4) AppleWebKit/537.36 (KHTML, like Gecko) Chrome/74.0.3729.131 Safari/537.36"",""on_chrome"":true,""on_mobile"":false,""language"":""en-US"",""screen_resolution"":[1440,900],""platform"":""MacIntel"",""timezone"":""Europe/Berlin""}","11","1741.9800000005403","","","1558020011631","12","","Dessau","[]","Dessau","true","false","2467.274999999092"
"","html-voicekey-response","106","802094","0.0-4.102-0.102","o8j2qwk3vbdupkx","{""user_agent"":""Mozilla/5.0 (Macintosh; Intel Mac OS X 10_14_4) AppleWebKit/537.36 (KHTML, like Gecko) Chrome/74.0.3729.131 Safari/537.36"",""on_chrome"":true,""on_mobile"":false,""language"":""en-US"",""screen_resolution"":[1440,900],""platform"":""MacIntel"",""timezone"":""Europe/Berlin""}","11","2367.24499999939","","","1558020014706","16","","Schwangau","[]","Schwangau","true","true","3008.3100000011036"
"","html-voicekey-response","107","804595","0.0-4.103-0.103","o8j2qwk3vbdupkx","{""user_agent"":""Mozilla/5.0 (Macintosh; Intel Mac OS X 10_14_4) AppleWebKit/537.36 (KHTML, like Gecko) Chrome/74.0.3729.131 Safari/537.36"",""on_chrome"":true,""on_mobile"":false,""language"":""en-US"",""screen_resolution"":[1440,900],""platform"":""MacIntel"",""timezone"":""Europe/Berlin""}","11","1167.7350000007777","","","1558020018321","17","","Leipzig","[]","Leipzig","true","true","1894.240000001504"
"","html-voicekey-response","108","807153","0.0-4.104-0.104","o8j2qwk3vbdupkx","{""user_agent"":""Mozilla/5.0 (Macintosh; Intel Mac OS X 10_14_4) AppleWebKit/537.36 (KHTML, like Gecko) Chrome/74.0.3729.131 Safari/537.36"",""on_chrome"":true,""on_mobile"":false,""language"":""en-US"",""screen_resolution"":[1440,900],""platform"":""MacIntel"",""timezone"":""Europe/Berlin""}","11","1299.8249999999302","","","1558020020823","16","","Schwangau","[]","Schwangau","true","false","1950.7900000025984"
"","html-voicekey-response","109","809186","0.0-4.105-0.105","o8j2qwk3vbdupkx","{""user_agent"":""Mozilla/5.0 (Macintosh; Intel Mac OS X 10_14_4) AppleWebKit/537.36 (KHTML, like Gecko) Chrome/74.0.3729.131 Safari/537.36"",""on_chrome"":true,""on_mobile"":false,""language"":""en-US"",""screen_resolution"":[1440,900],""platform"":""MacIntel"",""timezone"":""Europe/Berlin""}","11","766.4650000022724","","","1558020023380","17","","Leipzig","[]","Leipzig","true","false","1424.6050000000978"
"","html-voicekey-response","110","812018","0.0-4.106-0.106","o8j2qwk3vbdupkx","{""user_agent"":""Mozilla/5.0 (Macintosh; Intel Mac OS X 10_14_4) AppleWebKit/537.36 (KHTML, like Gecko) Chrome/74.0.3729.131 Safari/537.36"",""on_chrome"":true,""on_mobile"":false,""language"":""en-US"",""screen_resolution"":[1440,900],""platform"":""MacIntel"",""timezone"":""Europe/Berlin""}","11","1534.1850000021282","","","1558020025413","18","","Forchheim","[]","Forchheim","true","true","2225.7800000007264"
"","html-voicekey-response","111","814969","0.0-4.107-0.107","o8j2qwk3vbdupkx","{""user_agent"":""Mozilla/5.0 (Macintosh; Intel Mac OS X 10_14_4) AppleWebKit/537.36 (KHTML, like Gecko) Chrome/74.0.3729.131 Safari/537.36"",""on_chrome"":true,""on_mobile"":false,""language"":""en-US"",""screen_resolution"":[1440,900],""platform"":""MacIntel"",""timezone"":""Europe/Berlin""}","11","1618.0849999999396","","","1558020028245","19","","Frankfurt","[]","Frankfurt","true","true","2344.575000002864"
"","html-voicekey-response","112","817629","0.0-4.108-0.108","o8j2qwk3vbdupkx","{""user_agent"":""Mozilla/5.0 (Macintosh; Intel Mac OS X 10_14_4) AppleWebKit/537.36 (KHTML, like Gecko) Chrome/74.0.3729.131 Safari/537.36"",""on_chrome"":true,""on_mobile"":false,""language"":""en-US"",""screen_resolution"":[1440,900],""platform"":""MacIntel"",""timezone"":""Europe/Berlin""}","11","1150.9899999999675","","","1558020031196","18","","Forchheim","[]","Forchheim","true","false","2053.4550000011222"
