"value","trial_type","trial_index","time_elapsed","internal_node_id","subject","browser_info","participant_number","rt","responses","view_history","presentation_start_time","id","text","response","keypresses","answer","correct","study","experimenter_rt"
"","call-function","0","5","0.0-0.0","pq2bk2n2oes8f1y","{""user_agent"":""Mozilla/5.0 (Macintosh; Intel Mac OS X 10_14_4) AppleWebKit/537.36 (KHTML, like Gecko) Chrome/74.0.3729.131 Safari/537.36"",""on_chrome"":true,""on_mobile"":false,""language"":""en-US"",""screen_resolution"":[1440,900],""platform"":""MacIntel"",""timezone"":""Europe/Berlin""}","12","","","","","","","","","","","",""
"","survey-text","1","3077","0.0-1.0","pq2bk2n2oes8f1y","{""user_agent"":""Mozilla/5.0 (Macintosh; Intel Mac OS X 10_14_4) AppleWebKit/537.36 (KHTML, like Gecko) Chrome/74.0.3729.131 Safari/537.36"",""on_chrome"":true,""on_mobile"":false,""language"":""en-US"",""screen_resolution"":[1440,900],""platform"":""MacIntel"",""timezone"":""Europe/Berlin""}","12","3070","{""Q0"":""12""}","","","","","","","","","",""
"","instructions","2","105615","0.0-2.0","pq2bk2n2oes8f1y","{""user_agent"":""Mozilla/5.0 (Macintosh; Intel Mac OS X 10_14_4) AppleWebKit/537.36 (KHTML, like Gecko) Chrome/74.0.3729.131 Safari/537.36"",""on_chrome"":true,""on_mobile"":false,""language"":""en-US"",""screen_resolution"":[1440,900],""platform"":""MacIntel"",""timezone"":""Europe/Berlin""}","12","102537","","[{""page_index"":0,""viewing_time"":102537}]","","","","","","","","",""
"","call-function","3","105616","0.0-3.0","pq2bk2n2oes8f1y","{""user_agent"":""Mozilla/5.0 (Macintosh; Intel Mac OS X 10_14_4) AppleWebKit/537.36 (KHTML, like Gecko) Chrome/74.0.3729.131 Safari/537.36"",""on_chrome"":true,""on_mobile"":false,""language"":""en-US"",""screen_resolution"":[1440,900],""platform"":""MacIntel"",""timezone"":""Europe/Berlin""}","12","","","","","","","","","","","",""
"","html-voicekey-response","4","111648","0.0-4.0-0.0","pq2bk2n2oes8f1y","{""user_agent"":""Mozilla/5.0 (Macintosh; Intel Mac OS X 10_14_4) AppleWebKit/537.36 (KHTML, like Gecko) Chrome/74.0.3729.131 Safari/537.36"",""on_chrome"":true,""on_mobile"":false,""language"":""en-US"",""screen_resolution"":[1440,900],""platform"":""MacIntel"",""timezone"":""Europe/Berlin""}","12","341.58000000191385","","","1558085762685","1","","Magdeburg","[]","Magdeburg","true","true","5427.705000001879"
"","html-voicekey-response","5","118330","0.0-4.1-0.1","pq2bk2n2oes8f1y","{""user_agent"":""Mozilla/5.0 (Macintosh; Intel Mac OS X 10_14_4) AppleWebKit/537.36 (KHTML, like Gecko) Chrome/74.0.3729.131 Safari/537.36"",""on_chrome"":true,""on_mobile"":false,""language"":""en-US"",""screen_resolution"":[1440,900],""platform"":""MacIntel"",""timezone"":""Europe/Berlin""}","12","3852.6999999974855","","","1558085768718","1","","Magdeburg","[]","Magdeburg","true","false","6078.065000001516"
"","html-voicekey-response","6","121188","0.0-4.2-0.2","pq2bk2n2oes8f1y","{""user_agent"":""Mozilla/5.0 (Macintosh; Intel Mac OS X 10_14_4) AppleWebKit/537.36 (KHTML, like Gecko) Chrome/74.0.3729.131 Safari/537.36"",""on_chrome"":true,""on_mobile"":false,""language"":""en-US"",""screen_resolution"":[1440,900],""platform"":""MacIntel"",""timezone"":""Europe/Berlin""}","12","1697.0249999956927","","","1558085775398","2","","Berlin","[]","Berlin","true","true","2255.3849999967497"
"","html-voicekey-response","7","123288","0.0-4.3-0.3","pq2bk2n2oes8f1y","{""user_agent"":""Mozilla/5.0 (Macintosh; Intel Mac OS X 10_14_4) AppleWebKit/537.36 (KHTML, like Gecko) Chrome/74.0.3729.131 Safari/537.36"",""on_chrome"":true,""on_mobile"":false,""language"":""en-US"",""screen_resolution"":[1440,900],""platform"":""MacIntel"",""timezone"":""Europe/Berlin""}","12","872.8950000020908","","","1558085778256","2","","Berlin","[]","Berlin","true","false","1498.4049999984563"
"","html-voicekey-response","8","126522","0.0-4.4-0.4","pq2bk2n2oes8f1y","{""user_agent"":""Mozilla/5.0 (Macintosh; Intel Mac OS X 10_14_4) AppleWebKit/537.36 (KHTML, like Gecko) Chrome/74.0.3729.131 Safari/537.36"",""on_chrome"":true,""on_mobile"":false,""language"":""en-US"",""screen_resolution"":[1440,900],""platform"":""MacIntel"",""timezone"":""Europe/Berlin""}","12","1621.639999999234","","","1558085780357","3","","Ingolstadt","[]","Ingolstadt","true","true","2630.575000002864"
"","html-voicekey-response","9","129654","0.0-4.5-0.5","pq2bk2n2oes8f1y","{""user_agent"":""Mozilla/5.0 (Macintosh; Intel Mac OS X 10_14_4) AppleWebKit/537.36 (KHTML, like Gecko) Chrome/74.0.3729.131 Safari/537.36"",""on_chrome"":true,""on_mobile"":false,""language"":""en-US"",""screen_resolution"":[1440,900],""platform"":""MacIntel"",""timezone"":""Europe/Berlin""}","12","337.70499999976016","","","1558085783590","4","","Würzburg","[]","Würzburg","true","true","2530.174999999872"
"","html-voicekey-response","10","138266","0.0-4.6-0.6","pq2bk2n2oes8f1y","{""user_agent"":""Mozilla/5.0 (Macintosh; Intel Mac OS X 10_14_4) AppleWebKit/537.36 (KHTML, like Gecko) Chrome/74.0.3729.131 Safari/537.36"",""on_chrome"":true,""on_mobile"":false,""language"":""en-US"",""screen_resolution"":[1440,900],""platform"":""MacIntel"",""timezone"":""Europe/Berlin""}","12","100","","","1558085786722","3","","","[]","Ingolstadt","false","false","4609.539999997651"
"","html-voicekey-response","11","144583","0.0-4.7-0.7","pq2bk2n2oes8f1y","{""user_agent"":""Mozilla/5.0 (Macintosh; Intel Mac OS X 10_14_4) AppleWebKit/537.36 (KHTML, like Gecko) Chrome/74.0.3729.131 Safari/537.36"",""on_chrome"":true,""on_mobile"":false,""language"":""en-US"",""screen_resolution"":[1440,900],""platform"":""MacIntel"",""timezone"":""Europe/Berlin""}","12","Infinity","","","1558085795334","4","","Würzburg","[]","Würzburg","true","false","5714.634999996633"
"","html-voicekey-response","12","148245","0.0-4.8-0.8","pq2bk2n2oes8f1y","{""user_agent"":""Mozilla/5.0 (Macintosh; Intel Mac OS X 10_14_4) AppleWebKit/537.36 (KHTML, like Gecko) Chrome/74.0.3729.131 Safari/537.36"",""on_chrome"":true,""on_mobile"":false,""language"":""en-US"",""screen_resolution"":[1440,900],""platform"":""MacIntel"",""timezone"":""Europe/Berlin""}","12","2350.9849999989733","","","1558085801651","5","","Aachen","[]","Aachen","true","true","3060.18999999651"
"","html-voicekey-response","13","151077","0.0-4.9-0.9","pq2bk2n2oes8f1y","{""user_agent"":""Mozilla/5.0 (Macintosh; Intel Mac OS X 10_14_4) AppleWebKit/537.36 (KHTML, like Gecko) Chrome/74.0.3729.131 Safari/537.36"",""on_chrome"":true,""on_mobile"":false,""language"":""en-US"",""screen_resolution"":[1440,900],""platform"":""MacIntel"",""timezone"":""Europe/Berlin""}","12","1405.7300000002492","","","1558085805313","6","","Dresden","[]","Dresden","true","true","2230.1750000042375"
"","html-voicekey-response","14","157710","0.0-4.10-0.10","pq2bk2n2oes8f1y","{""user_agent"":""Mozilla/5.0 (Macintosh; Intel Mac OS X 10_14_4) AppleWebKit/537.36 (KHTML, like Gecko) Chrome/74.0.3729.131 Safari/537.36"",""on_chrome"":true,""on_mobile"":false,""language"":""en-US"",""screen_resolution"":[1440,900],""platform"":""MacIntel"",""timezone"":""Europe/Berlin""}","12","905.6299999954994","","","1558085808145","5","","","[]","Aachen","false","false","2631.4599999968777"
"","html-voicekey-response","15","160600","0.0-4.11-0.11","pq2bk2n2oes8f1y","{""user_agent"":""Mozilla/5.0 (Macintosh; Intel Mac OS X 10_14_4) AppleWebKit/537.36 (KHTML, like Gecko) Chrome/74.0.3729.131 Safari/537.36"",""on_chrome"":true,""on_mobile"":false,""language"":""en-US"",""screen_resolution"":[1440,900],""platform"":""MacIntel"",""timezone"":""Europe/Berlin""}","12","1289.9900000064285","","","1558085814778","6","","Dresden","[]","Dresden","true","false","2287.6850000029663"
"","html-voicekey-response","16","163684","0.0-4.12-0.12","pq2bk2n2oes8f1y","{""user_agent"":""Mozilla/5.0 (Macintosh; Intel Mac OS X 10_14_4) AppleWebKit/537.36 (KHTML, like Gecko) Chrome/74.0.3729.131 Safari/537.36"",""on_chrome"":true,""on_mobile"":false,""language"":""en-US"",""screen_resolution"":[1440,900],""platform"":""MacIntel"",""timezone"":""Europe/Berlin""}","12","1555.770000000694","","","1558085817668","1","","Magdeburg","[]","Magdeburg","true","false","2481.9100000022445"
"","html-voicekey-response","17","166134","0.0-4.13-0.13","pq2bk2n2oes8f1y","{""user_agent"":""Mozilla/5.0 (Macintosh; Intel Mac OS X 10_14_4) AppleWebKit/537.36 (KHTML, like Gecko) Chrome/74.0.3729.131 Safari/537.36"",""on_chrome"":true,""on_mobile"":false,""language"":""en-US"",""screen_resolution"":[1440,900],""platform"":""MacIntel"",""timezone"":""Europe/Berlin""}","12","1272.6199999977603","","","1558085820753","2","","Berlin","[]","Berlin","true","false","1848.055000002205"
"","html-voicekey-response","18","169253","0.0-4.14-0.14","pq2bk2n2oes8f1y","{""user_agent"":""Mozilla/5.0 (Macintosh; Intel Mac OS X 10_14_4) AppleWebKit/537.36 (KHTML, like Gecko) Chrome/74.0.3729.131 Safari/537.36"",""on_chrome"":true,""on_mobile"":false,""language"":""en-US"",""screen_resolution"":[1440,900],""platform"":""MacIntel"",""timezone"":""Europe/Berlin""}","12","1605.7500000041096","","","1558085823203","7","","Erfurt","[]","Erfurt","true","true","2514.0549999996438"
"","html-voicekey-response","19","172726","0.0-4.15-0.15","pq2bk2n2oes8f1y","{""user_agent"":""Mozilla/5.0 (Macintosh; Intel Mac OS X 10_14_4) AppleWebKit/537.36 (KHTML, like Gecko) Chrome/74.0.3729.131 Safari/537.36"",""on_chrome"":true,""on_mobile"":false,""language"":""en-US"",""screen_resolution"":[1440,900],""platform"":""MacIntel"",""timezone"":""Europe/Berlin""}","12","443.8850000022561","","","1558085826321","8","","Gotha","[]","Gotha","true","true","2870.8350000015344"
"","html-voicekey-response","20","181559","0.0-4.16-0.16","pq2bk2n2oes8f1y","{""user_agent"":""Mozilla/5.0 (Macintosh; Intel Mac OS X 10_14_4) AppleWebKit/537.36 (KHTML, like Gecko) Chrome/74.0.3729.131 Safari/537.36"",""on_chrome"":true,""on_mobile"":false,""language"":""en-US"",""screen_resolution"":[1440,900],""platform"":""MacIntel"",""timezone"":""Europe/Berlin""}","12","3688.4349999980536","","","1558085829795","7","","","[]","Erfurt","false","false","4830.529999999271"
"","html-voicekey-response","21","191104","0.0-4.17-0.17","pq2bk2n2oes8f1y","{""user_agent"":""Mozilla/5.0 (Macintosh; Intel Mac OS X 10_14_4) AppleWebKit/537.36 (KHTML, like Gecko) Chrome/74.0.3729.131 Safari/537.36"",""on_chrome"":true,""on_mobile"":false,""language"":""en-US"",""screen_resolution"":[1440,900],""platform"":""MacIntel"",""timezone"":""Europe/Berlin""}","12","304.9400000034715","","","1558085838628","8","","","[]","Gotha","false","false","5542.755000002217"
"","html-voicekey-response","22","198522","0.0-4.18-0.18","pq2bk2n2oes8f1y","{""user_agent"":""Mozilla/5.0 (Macintosh; Intel Mac OS X 10_14_4) AppleWebKit/537.36 (KHTML, like Gecko) Chrome/74.0.3729.131 Safari/537.36"",""on_chrome"":true,""on_mobile"":false,""language"":""en-US"",""screen_resolution"":[1440,900],""platform"":""MacIntel"",""timezone"":""Europe/Berlin""}","12","2504.914999999374","","","1558085848173","3","","","[]","Ingolstadt","false","false","3413.605000001553"
"","html-voicekey-response","23","200911","0.0-4.19-0.19","pq2bk2n2oes8f1y","{""user_agent"":""Mozilla/5.0 (Macintosh; Intel Mac OS X 10_14_4) AppleWebKit/537.36 (KHTML, like Gecko) Chrome/74.0.3729.131 Safari/537.36"",""on_chrome"":true,""on_mobile"":false,""language"":""en-US"",""screen_resolution"":[1440,900],""platform"":""MacIntel"",""timezone"":""Europe/Berlin""}","12","1161.0099999978324","","","1558085855591","4","","Würzburg","[]","Würzburg","true","false","1786.0399999990477"
"","html-voicekey-response","24","208762","0.0-4.20-0.20","pq2bk2n2oes8f1y","{""user_agent"":""Mozilla/5.0 (Macintosh; Intel Mac OS X 10_14_4) AppleWebKit/537.36 (KHTML, like Gecko) Chrome/74.0.3729.131 Safari/537.36"",""on_chrome"":true,""on_mobile"":false,""language"":""en-US"",""screen_resolution"":[1440,900],""platform"":""MacIntel"",""timezone"":""Europe/Berlin""}","12","2621.7800000029733","","","1558085857980","5","","","[]","Aachen","false","false","3847.9450000013458"
"","html-voicekey-response","25","211190","0.0-4.21-0.21","pq2bk2n2oes8f1y","{""user_agent"":""Mozilla/5.0 (Macintosh; Intel Mac OS X 10_14_4) AppleWebKit/537.36 (KHTML, like Gecko) Chrome/74.0.3729.131 Safari/537.36"",""on_chrome"":true,""on_mobile"":false,""language"":""en-US"",""screen_resolution"":[1440,900],""platform"":""MacIntel"",""timezone"":""Europe/Berlin""}","12","1199.045000002871","","","1558085865831","6","","Dresden","[]","Dresden","true","false","1825.1600000003236"
"","html-voicekey-response","26","213873","0.0-4.22-0.22","pq2bk2n2oes8f1y","{""user_agent"":""Mozilla/5.0 (Macintosh; Intel Mac OS X 10_14_4) AppleWebKit/537.36 (KHTML, like Gecko) Chrome/74.0.3729.131 Safari/537.36"",""on_chrome"":true,""on_mobile"":false,""language"":""en-US"",""screen_resolution"":[1440,900],""platform"":""MacIntel"",""timezone"":""Europe/Berlin""}","12","1372.5150000044146","","","1558085868258","9","","München","[]","München","true","true","2081.125000004249"
"","html-voicekey-response","27","217108","0.0-4.23-0.23","pq2bk2n2oes8f1y","{""user_agent"":""Mozilla/5.0 (Macintosh; Intel Mac OS X 10_14_4) AppleWebKit/537.36 (KHTML, like Gecko) Chrome/74.0.3729.131 Safari/537.36"",""on_chrome"":true,""on_mobile"":false,""language"":""en-US"",""screen_resolution"":[1440,900],""platform"":""MacIntel"",""timezone"":""Europe/Berlin""}","12","1636.5800000001677","","","1558085870943","10","","Heidelberg","[]","Heidelberg","true","true","2629.0900000021793"
"","html-voicekey-response","28","222399","0.0-4.24-0.24","pq2bk2n2oes8f1y","{""user_agent"":""Mozilla/5.0 (Macintosh; Intel Mac OS X 10_14_4) AppleWebKit/537.36 (KHTML, like Gecko) Chrome/74.0.3729.131 Safari/537.36"",""on_chrome"":true,""on_mobile"":false,""language"":""en-US"",""screen_resolution"":[1440,900],""platform"":""MacIntel"",""timezone"":""Europe/Berlin""}","12","Infinity","","","1558085874177","9","","München","[]","München","true","false","4687.339999996766"
"","html-voicekey-response","29","225365","0.0-4.25-0.25","pq2bk2n2oes8f1y","{""user_agent"":""Mozilla/5.0 (Macintosh; Intel Mac OS X 10_14_4) AppleWebKit/537.36 (KHTML, like Gecko) Chrome/74.0.3729.131 Safari/537.36"",""on_chrome"":true,""on_mobile"":false,""language"":""en-US"",""screen_resolution"":[1440,900],""platform"":""MacIntel"",""timezone"":""Europe/Berlin""}","12","1421.2349999960047","","","1558085879468","10","","Heidelberg","[]","Heidelberg","true","false","2362.7199999973527"
"","html-voicekey-response","30","228232","0.0-4.26-0.26","pq2bk2n2oes8f1y","{""user_agent"":""Mozilla/5.0 (Macintosh; Intel Mac OS X 10_14_4) AppleWebKit/537.36 (KHTML, like Gecko) Chrome/74.0.3729.131 Safari/537.36"",""on_chrome"":true,""on_mobile"":false,""language"":""en-US"",""screen_resolution"":[1440,900],""platform"":""MacIntel"",""timezone"":""Europe/Berlin""}","12","1705.129999996489","","","1558085882434","7","","Erfurt","[]","Erfurt","true","false","2263.794999998936"
"","html-voicekey-response","31","235007","0.0-4.27-0.27","pq2bk2n2oes8f1y","{""user_agent"":""Mozilla/5.0 (Macintosh; Intel Mac OS X 10_14_4) AppleWebKit/537.36 (KHTML, like Gecko) Chrome/74.0.3729.131 Safari/537.36"",""on_chrome"":true,""on_mobile"":false,""language"":""en-US"",""screen_resolution"":[1440,900],""platform"":""MacIntel"",""timezone"":""Europe/Berlin""}","12","5297.8200000014385","","","1558085885300","3","","Ingolstadt","[]","Ingolstadt","true","false","6172.5099999966915"
"","html-voicekey-response","32","239557","0.0-4.28-0.28","pq2bk2n2oes8f1y","{""user_agent"":""Mozilla/5.0 (Macintosh; Intel Mac OS X 10_14_4) AppleWebKit/537.36 (KHTML, like Gecko) Chrome/74.0.3729.131 Safari/537.36"",""on_chrome"":true,""on_mobile"":false,""language"":""en-US"",""screen_resolution"":[1440,900],""platform"":""MacIntel"",""timezone"":""Europe/Berlin""}","12","3354.7199999973877","","","1558085892076","8","","Gotha","[]","Gotha","true","false","3946.6650000031223"
"","html-voicekey-response","33","242715","0.0-4.29-0.29","pq2bk2n2oes8f1y","{""user_agent"":""Mozilla/5.0 (Macintosh; Intel Mac OS X 10_14_4) AppleWebKit/537.36 (KHTML, like Gecko) Chrome/74.0.3729.131 Safari/537.36"",""on_chrome"":true,""on_mobile"":false,""language"":""en-US"",""screen_resolution"":[1440,900],""platform"":""MacIntel"",""timezone"":""Europe/Berlin""}","12","1579.6250000001514","","","1558085896626","11","","Alfeld","[]","Alfeld","true","true","2555.3150000050664"
"","html-voicekey-response","34","252765","0.0-4.30-0.30","pq2bk2n2oes8f1y","{""user_agent"":""Mozilla/5.0 (Macintosh; Intel Mac OS X 10_14_4) AppleWebKit/537.36 (KHTML, like Gecko) Chrome/74.0.3729.131 Safari/537.36"",""on_chrome"":true,""on_mobile"":false,""language"":""en-US"",""screen_resolution"":[1440,900],""platform"":""MacIntel"",""timezone"":""Europe/Berlin""}","12","5468.280000002624","","","1558085899787","5","","","[]","Aachen","false","false","6043.7200000014855"
"","html-voicekey-response","35","263273","0.0-4.31-0.31","pq2bk2n2oes8f1y","{""user_agent"":""Mozilla/5.0 (Macintosh; Intel Mac OS X 10_14_4) AppleWebKit/537.36 (KHTML, like Gecko) Chrome/74.0.3729.131 Safari/537.36"",""on_chrome"":true,""on_mobile"":false,""language"":""en-US"",""screen_resolution"":[1440,900],""platform"":""MacIntel"",""timezone"":""Europe/Berlin""}","12","5896.470000001345","","","1558085909834","11","","","[]","Alfeld","false","false","6505.304999998771"
"","html-voicekey-response","36","274184","0.0-4.32-0.32","pq2bk2n2oes8f1y","{""user_agent"":""Mozilla/5.0 (Macintosh; Intel Mac OS X 10_14_4) AppleWebKit/537.36 (KHTML, like Gecko) Chrome/74.0.3729.131 Safari/537.36"",""on_chrome"":true,""on_mobile"":false,""language"":""en-US"",""screen_resolution"":[1440,900],""platform"":""MacIntel"",""timezone"":""Europe/Berlin""}","12","282.56999999742254","","","1558085920342","3","","","[]","Ingolstadt","false","false","6907.924999999523"
"","html-voicekey-response","37","277425","0.0-4.33-0.33","pq2bk2n2oes8f1y","{""user_agent"":""Mozilla/5.0 (Macintosh; Intel Mac OS X 10_14_4) AppleWebKit/537.36 (KHTML, like Gecko) Chrome/74.0.3729.131 Safari/537.36"",""on_chrome"":true,""on_mobile"":false,""language"":""en-US"",""screen_resolution"":[1440,900],""platform"":""MacIntel"",""timezone"":""Europe/Berlin""}","12","1330.1699999954785","","","1558085931253","9","","München","[]","München","true","false","2637.4599999981"
"","html-voicekey-response","38","280442","0.0-4.34-0.34","pq2bk2n2oes8f1y","{""user_agent"":""Mozilla/5.0 (Macintosh; Intel Mac OS X 10_14_4) AppleWebKit/537.36 (KHTML, like Gecko) Chrome/74.0.3729.131 Safari/537.36"",""on_chrome"":true,""on_mobile"":false,""language"":""en-US"",""screen_resolution"":[1440,900],""platform"":""MacIntel"",""timezone"":""Europe/Berlin""}","12","1554.630000000389","","","1558085934494","10","","Heidelberg","[]","Heidelberg","true","false","2414.214999997057"
"","html-voicekey-response","39","284816","0.0-4.35-0.35","pq2bk2n2oes8f1y","{""user_agent"":""Mozilla/5.0 (Macintosh; Intel Mac OS X 10_14_4) AppleWebKit/537.36 (KHTML, like Gecko) Chrome/74.0.3729.131 Safari/537.36"",""on_chrome"":true,""on_mobile"":false,""language"":""en-US"",""screen_resolution"":[1440,900],""platform"":""MacIntel"",""timezone"":""Europe/Berlin""}","12","2721.509999997425","","","1558085937510","5","","Aachen","[]","Aachen","true","false","3772.349999999278"
"","html-voicekey-response","40","290016","0.0-4.36-0.36","pq2bk2n2oes8f1y","{""user_agent"":""Mozilla/5.0 (Macintosh; Intel Mac OS X 10_14_4) AppleWebKit/537.36 (KHTML, like Gecko) Chrome/74.0.3729.131 Safari/537.36"",""on_chrome"":true,""on_mobile"":false,""language"":""en-US"",""screen_resolution"":[1440,900],""platform"":""MacIntel"",""timezone"":""Europe/Berlin""}","12","3637.5649999989314","","","1558085941886","8","","Gotha","[]","Gotha","true","false","4595.374999997148"
"","html-voicekey-response","41","295150","0.0-4.37-0.37","pq2bk2n2oes8f1y","{""user_agent"":""Mozilla/5.0 (Macintosh; Intel Mac OS X 10_14_4) AppleWebKit/537.36 (KHTML, like Gecko) Chrome/74.0.3729.131 Safari/537.36"",""on_chrome"":true,""on_mobile"":false,""language"":""en-US"",""screen_resolution"":[1440,900],""platform"":""MacIntel"",""timezone"":""Europe/Berlin""}","12","3521.5099999930594","","","1558085947085","3","","Ingolstadt","[]","Ingolstadt","true","false","4529.589999998279"
"","html-voicekey-response","42","298274","0.0-4.38-0.38","pq2bk2n2oes8f1y","{""user_agent"":""Mozilla/5.0 (Macintosh; Intel Mac OS X 10_14_4) AppleWebKit/537.36 (KHTML, like Gecko) Chrome/74.0.3729.131 Safari/537.36"",""on_chrome"":true,""on_mobile"":false,""language"":""en-US"",""screen_resolution"":[1440,900],""platform"":""MacIntel"",""timezone"":""Europe/Berlin""}","12","1745.004999998701","","","1558085952219","12","","Dessau","[]","Dessau","true","true","2520.814999996219"
"","html-voicekey-response","43","301807","0.0-4.39-0.39","pq2bk2n2oes8f1y","{""user_agent"":""Mozilla/5.0 (Macintosh; Intel Mac OS X 10_14_4) AppleWebKit/537.36 (KHTML, like Gecko) Chrome/74.0.3729.131 Safari/537.36"",""on_chrome"":true,""on_mobile"":false,""language"":""en-US"",""screen_resolution"":[1440,900],""platform"":""MacIntel"",""timezone"":""Europe/Berlin""}","12","1503.6500000004075","","","1558085955343","13","","Chemnitz","[]","Chemnitz","true","true","2929.60000000312"
"","html-voicekey-response","44","304589","0.0-4.40-0.40","pq2bk2n2oes8f1y","{""user_agent"":""Mozilla/5.0 (Macintosh; Intel Mac OS X 10_14_4) AppleWebKit/537.36 (KHTML, like Gecko) Chrome/74.0.3729.131 Safari/537.36"",""on_chrome"":true,""on_mobile"":false,""language"":""en-US"",""screen_resolution"":[1440,900],""platform"":""MacIntel"",""timezone"":""Europe/Berlin""}","12","1671.8699999999722","","","1558085958876","12","","Dessau","[]","Dessau","true","false","2179.3949999992037"
"","html-voicekey-response","45","306801","0.0-4.41-0.41","pq2bk2n2oes8f1y","{""user_agent"":""Mozilla/5.0 (Macintosh; Intel Mac OS X 10_14_4) AppleWebKit/537.36 (KHTML, like Gecko) Chrome/74.0.3729.131 Safari/537.36"",""on_chrome"":true,""on_mobile"":false,""language"":""en-US"",""screen_resolution"":[1440,900],""platform"":""MacIntel"",""timezone"":""Europe/Berlin""}","12","934.4250000011292","","","1558085961658","13","","Chemnitz","[]","Chemnitz","true","false","1609.1799999994691"
"","html-voicekey-response","46","316118","0.0-4.42-0.42","pq2bk2n2oes8f1y","{""user_agent"":""Mozilla/5.0 (Macintosh; Intel Mac OS X 10_14_4) AppleWebKit/537.36 (KHTML, like Gecko) Chrome/74.0.3729.131 Safari/537.36"",""on_chrome"":true,""on_mobile"":false,""language"":""en-US"",""screen_resolution"":[1440,900],""platform"":""MacIntel"",""timezone"":""Europe/Berlin""}","12","4835.189999999629","","","1558085963873","11","","","[]","Alfeld","false","false","5310.445000002801"
"","html-voicekey-response","47","322791","0.0-4.43-0.43","pq2bk2n2oes8f1y","{""user_agent"":""Mozilla/5.0 (Macintosh; Intel Mac OS X 10_14_4) AppleWebKit/537.36 (KHTML, like Gecko) Chrome/74.0.3729.131 Safari/537.36"",""on_chrome"":true,""on_mobile"":false,""language"":""en-US"",""screen_resolution"":[1440,900],""platform"":""MacIntel"",""timezone"":""Europe/Berlin""}","12","Infinity","","","1558085973188","3","","Ingolstadt","[]","Ingolstadt","true","false","6068.889999995008"
"","html-voicekey-response","48","326125","0.0-4.44-0.44","pq2bk2n2oes8f1y","{""user_agent"":""Mozilla/5.0 (Macintosh; Intel Mac OS X 10_14_4) AppleWebKit/537.36 (KHTML, like Gecko) Chrome/74.0.3729.131 Safari/537.36"",""on_chrome"":true,""on_mobile"":false,""language"":""en-US"",""screen_resolution"":[1440,900],""platform"":""MacIntel"",""timezone"":""Europe/Berlin""}","12","2120.680000001658","","","1558085979861","5","","Aachen","[]","Aachen","true","false","2729.319999998552"
"","html-voicekey-response","49","329908","0.0-4.45-0.45","pq2bk2n2oes8f1y","{""user_agent"":""Mozilla/5.0 (Macintosh; Intel Mac OS X 10_14_4) AppleWebKit/537.36 (KHTML, like Gecko) Chrome/74.0.3729.131 Safari/537.36"",""on_chrome"":true,""on_mobile"":false,""language"":""en-US"",""screen_resolution"":[1440,900],""platform"":""MacIntel"",""timezone"":""Europe/Berlin""}","12","2469.9399999970688","","","1558085983195","8","","Gotha","[]","Gotha","true","false","3179.199999998673"
"","html-voicekey-response","50","333365","0.0-4.46-0.46","pq2bk2n2oes8f1y","{""user_agent"":""Mozilla/5.0 (Macintosh; Intel Mac OS X 10_14_4) AppleWebKit/537.36 (KHTML, like Gecko) Chrome/74.0.3729.131 Safari/537.36"",""on_chrome"":true,""on_mobile"":false,""language"":""en-US"",""screen_resolution"":[1440,900],""platform"":""MacIntel"",""timezone"":""Europe/Berlin""}","12","1461.730000004382","","","1558085986978","14","","Potsdam","[]","Potsdam","true","true","2853.2800000029965"
"","html-voicekey-response","51","336166","0.0-4.47-0.47","pq2bk2n2oes8f1y","{""user_agent"":""Mozilla/5.0 (Macintosh; Intel Mac OS X 10_14_4) AppleWebKit/537.36 (KHTML, like Gecko) Chrome/74.0.3729.131 Safari/537.36"",""on_chrome"":true,""on_mobile"":false,""language"":""en-US"",""screen_resolution"":[1440,900],""platform"":""MacIntel"",""timezone"":""Europe/Berlin""}","12","1022.6349999955622","","","1558085990434","15","","Nürnberg","[]","Nürnberg","true","true","2198.1349999987287"
"","html-voicekey-response","52","351265","0.0-4.48-0.48","pq2bk2n2oes8f1y","{""user_agent"":""Mozilla/5.0 (Macintosh; Intel Mac OS X 10_14_4) AppleWebKit/537.36 (KHTML, like Gecko) Chrome/74.0.3729.131 Safari/537.36"",""on_chrome"":true,""on_mobile"":false,""language"":""en-US"",""screen_resolution"":[1440,900],""platform"":""MacIntel"",""timezone"":""Europe/Berlin""}","12","10554.150000005238","","","1558085993235","14","","","[]","Potsdam","false","false","11096.105000004172"
"","html-voicekey-response","53","362465","0.0-4.49-0.49","pq2bk2n2oes8f1y","{""user_agent"":""Mozilla/5.0 (Macintosh; Intel Mac OS X 10_14_4) AppleWebKit/537.36 (KHTML, like Gecko) Chrome/74.0.3729.131 Safari/537.36"",""on_chrome"":true,""on_mobile"":false,""language"":""en-US"",""screen_resolution"":[1440,900],""platform"":""MacIntel"",""timezone"":""Europe/Berlin""}","12","6688.700000000454","","","1558086008334","15","","","[]","Nürnberg","false","false","7196.524999999383"
"","html-voicekey-response","54","366107","0.0-4.50-0.50","pq2bk2n2oes8f1y","{""user_agent"":""Mozilla/5.0 (Macintosh; Intel Mac OS X 10_14_4) AppleWebKit/537.36 (KHTML, like Gecko) Chrome/74.0.3729.131 Safari/537.36"",""on_chrome"":true,""on_mobile"":false,""language"":""en-US"",""screen_resolution"":[1440,900],""platform"":""MacIntel"",""timezone"":""Europe/Berlin""}","12","2213.59000000105","","","1558086019533","3","","Ingolstadt","[]","Ingolstadt","true","false","3039.310000000114"
"","html-voicekey-response","55","368689","0.0-4.51-0.51","pq2bk2n2oes8f1y","{""user_agent"":""Mozilla/5.0 (Macintosh; Intel Mac OS X 10_14_4) AppleWebKit/537.36 (KHTML, like Gecko) Chrome/74.0.3729.131 Safari/537.36"",""on_chrome"":true,""on_mobile"":false,""language"":""en-US"",""screen_resolution"":[1440,900],""platform"":""MacIntel"",""timezone"":""Europe/Berlin""}","12","1438.605000004673","","","1558086023176","12","","Dessau","[]","Dessau","true","false","1979.830000003858"
"","html-voicekey-response","56","377063","0.0-4.52-0.52","pq2bk2n2oes8f1y","{""user_agent"":""Mozilla/5.0 (Macintosh; Intel Mac OS X 10_14_4) AppleWebKit/537.36 (KHTML, like Gecko) Chrome/74.0.3729.131 Safari/537.36"",""on_chrome"":true,""on_mobile"":false,""language"":""en-US"",""screen_resolution"":[1440,900],""platform"":""MacIntel"",""timezone"":""Europe/Berlin""}","12","3678.614999998745","","","1558086025758","13","","","[]","Chemnitz","false","false","4370.609999998123"
"","html-voicekey-response","57","384514","0.0-4.53-0.53","pq2bk2n2oes8f1y","{""user_agent"":""Mozilla/5.0 (Macintosh; Intel Mac OS X 10_14_4) AppleWebKit/537.36 (KHTML, like Gecko) Chrome/74.0.3729.131 Safari/537.36"",""on_chrome"":true,""on_mobile"":false,""language"":""en-US"",""screen_resolution"":[1440,900],""platform"":""MacIntel"",""timezone"":""Europe/Berlin""}","12","5404.470000002975","","","1558086034132","11","","Alfeld","[]","Alfeld","true","false","6846.400000002177"
"","html-voicekey-response","58","387791","0.0-4.54-0.54","pq2bk2n2oes8f1y","{""user_agent"":""Mozilla/5.0 (Macintosh; Intel Mac OS X 10_14_4) AppleWebKit/537.36 (KHTML, like Gecko) Chrome/74.0.3729.131 Safari/537.36"",""on_chrome"":true,""on_mobile"":false,""language"":""en-US"",""screen_resolution"":[1440,900],""platform"":""MacIntel"",""timezone"":""Europe/Berlin""}","12","197.9900000022375","","","1558086041583","5","","Aachen","[]","Aachen","true","false","2674.350000001141"
"","html-voicekey-response","59","390708","0.0-4.55-0.55","pq2bk2n2oes8f1y","{""user_agent"":""Mozilla/5.0 (Macintosh; Intel Mac OS X 10_14_4) AppleWebKit/537.36 (KHTML, like Gecko) Chrome/74.0.3729.131 Safari/537.36"",""on_chrome"":true,""on_mobile"":false,""language"":""en-US"",""screen_resolution"":[1440,900],""platform"":""MacIntel"",""timezone"":""Europe/Berlin""}","12","1654.239999997872","","","1558086044861","14","","Potsdam","[]","Potsdam","true","false","2313.6849999937112"
"","html-voicekey-response","60","393993","0.0-4.56-0.56","pq2bk2n2oes8f1y","{""user_agent"":""Mozilla/5.0 (Macintosh; Intel Mac OS X 10_14_4) AppleWebKit/537.36 (KHTML, like Gecko) Chrome/74.0.3729.131 Safari/537.36"",""on_chrome"":true,""on_mobile"":false,""language"":""en-US"",""screen_resolution"":[1440,900],""platform"":""MacIntel"",""timezone"":""Europe/Berlin""}","12","2038.3999999993016","","","1558086047777","8","","Gotha","[]","Gotha","true","false","2679.9150000006193"
"","html-voicekey-response","61","397366","0.0-4.57-0.57","pq2bk2n2oes8f1y","{""user_agent"":""Mozilla/5.0 (Macintosh; Intel Mac OS X 10_14_4) AppleWebKit/537.36 (KHTML, like Gecko) Chrome/74.0.3729.131 Safari/537.36"",""on_chrome"":true,""on_mobile"":false,""language"":""en-US"",""screen_resolution"":[1440,900],""platform"":""MacIntel"",""timezone"":""Europe/Berlin""}","12","1559.6850000018371","","","1558086051063","16","","Schwangau","[]","Schwangau","true","true","2768.775000004098"
"","html-voicekey-response","62","399998","0.0-4.58-0.58","pq2bk2n2oes8f1y","{""user_agent"":""Mozilla/5.0 (Macintosh; Intel Mac OS X 10_14_4) AppleWebKit/537.36 (KHTML, like Gecko) Chrome/74.0.3729.131 Safari/537.36"",""on_chrome"":true,""on_mobile"":false,""language"":""en-US"",""screen_resolution"":[1440,900],""platform"":""MacIntel"",""timezone"":""Europe/Berlin""}","12","1220.8550000012387","","","1558086054435","17","","Leipzig","[]","Leipzig","true","true","2028.8999999975204"
"","html-voicekey-response","63","402782","0.0-4.59-0.59","pq2bk2n2oes8f1y","{""user_agent"":""Mozilla/5.0 (Macintosh; Intel Mac OS X 10_14_4) AppleWebKit/537.36 (KHTML, like Gecko) Chrome/74.0.3729.131 Safari/537.36"",""on_chrome"":true,""on_mobile"":false,""language"":""en-US"",""screen_resolution"":[1440,900],""platform"":""MacIntel"",""timezone"":""Europe/Berlin""}","12","471.6850000057369","","","1558086057067","16","","Schwangau","[]","Schwangau","true","false","2181.155000005674"
"","html-voicekey-response","64","405033","0.0-4.60-0.60","pq2bk2n2oes8f1y","{""user_agent"":""Mozilla/5.0 (Macintosh; Intel Mac OS X 10_14_4) AppleWebKit/537.36 (KHTML, like Gecko) Chrome/74.0.3729.131 Safari/537.36"",""on_chrome"":true,""on_mobile"":false,""language"":""en-US"",""screen_resolution"":[1440,900],""platform"":""MacIntel"",""timezone"":""Europe/Berlin""}","12","1071.055000002007","","","1558086059851","17","","Leipzig","[]","Leipzig","true","false","1645.875000001979"
"","html-voicekey-response","65","414606","0.0-4.61-0.61","pq2bk2n2oes8f1y","{""user_agent"":""Mozilla/5.0 (Macintosh; Intel Mac OS X 10_14_4) AppleWebKit/537.36 (KHTML, like Gecko) Chrome/74.0.3729.131 Safari/537.36"",""on_chrome"":true,""on_mobile"":false,""language"":""en-US"",""screen_resolution"":[1440,900],""platform"":""MacIntel"",""timezone"":""Europe/Berlin""}","12","4877.43499999654","","","1558086062102","11","","","[]","Alfeld","false","false","5569.664999995439"
"","html-voicekey-response","66","418168","0.0-4.62-0.62","pq2bk2n2oes8f1y","{""user_agent"":""Mozilla/5.0 (Macintosh; Intel Mac OS X 10_14_4) AppleWebKit/537.36 (KHTML, like Gecko) Chrome/74.0.3729.131 Safari/537.36"",""on_chrome"":true,""on_mobile"":false,""language"":""en-US"",""screen_resolution"":[1440,900],""platform"":""MacIntel"",""timezone"":""Europe/Berlin""}","12","2171.4650000011084","","","1558086071675","3","","Ingolstadt","[]","Ingolstadt","true","false","2959.69000000332"
"","html-voicekey-response","67","421301","0.0-4.63-0.63","pq2bk2n2oes8f1y","{""user_agent"":""Mozilla/5.0 (Macintosh; Intel Mac OS X 10_14_4) AppleWebKit/537.36 (KHTML, like Gecko) Chrome/74.0.3729.131 Safari/537.36"",""on_chrome"":true,""on_mobile"":false,""language"":""en-US"",""screen_resolution"":[1440,900],""platform"":""MacIntel"",""timezone"":""Europe/Berlin""}","12","1804.9449999978883","","","1558086075237","13","","Chemnitz","[]","Chemnitz","true","false","2529.9450000020443"
"","html-voicekey-response","68","429018","0.0-4.64-0.64","pq2bk2n2oes8f1y","{""user_agent"":""Mozilla/5.0 (Macintosh; Intel Mac OS X 10_14_4) AppleWebKit/537.36 (KHTML, like Gecko) Chrome/74.0.3729.131 Safari/537.36"",""on_chrome"":true,""on_mobile"":false,""language"":""en-US"",""screen_resolution"":[1440,900],""platform"":""MacIntel"",""timezone"":""Europe/Berlin""}","12","3087.6050000022865","","","1558086078371","15","","","[]","Nürnberg","false","false","3713.180000006105"
"","html-voicekey-response","69","431741","0.0-4.65-0.65","pq2bk2n2oes8f1y","{""user_agent"":""Mozilla/5.0 (Macintosh; Intel Mac OS X 10_14_4) AppleWebKit/537.36 (KHTML, like Gecko) Chrome/74.0.3729.131 Safari/537.36"",""on_chrome"":true,""on_mobile"":false,""language"":""en-US"",""screen_resolution"":[1440,900],""platform"":""MacIntel"",""timezone"":""Europe/Berlin""}","12","1460.2800000009943","","","1558086086089","2","","Berlin","[]","Berlin","true","false","2118.8400000028196"
"","html-voicekey-response","70","434791","0.0-4.66-0.66","pq2bk2n2oes8f1y","{""user_agent"":""Mozilla/5.0 (Macintosh; Intel Mac OS X 10_14_4) AppleWebKit/537.36 (KHTML, like Gecko) Chrome/74.0.3729.131 Safari/537.36"",""on_chrome"":true,""on_mobile"":false,""language"":""en-US"",""screen_resolution"":[1440,900],""platform"":""MacIntel"",""timezone"":""Europe/Berlin""}","12","1471.7600000020234","","","1558086088811","18","","Forchheim","[]","Forchheim","true","true","2446.5200000049663"
"","html-voicekey-response","71","438310","0.0-4.67-0.67","pq2bk2n2oes8f1y","{""user_agent"":""Mozilla/5.0 (Macintosh; Intel Mac OS X 10_14_4) AppleWebKit/537.36 (KHTML, like Gecko) Chrome/74.0.3729.131 Safari/537.36"",""on_chrome"":true,""on_mobile"":false,""language"":""en-US"",""screen_resolution"":[1440,900],""platform"":""MacIntel"",""timezone"":""Europe/Berlin""}","12","2204.1950000001","","","1558086091861","11","","Alfeld","[]","Alfeld","true","false","2912.7499999958673"
"","html-voicekey-response","72","448463","0.0-4.68-0.68","pq2bk2n2oes8f1y","{""user_agent"":""Mozilla/5.0 (Macintosh; Intel Mac OS X 10_14_4) AppleWebKit/537.36 (KHTML, like Gecko) Chrome/74.0.3729.131 Safari/537.36"",""on_chrome"":true,""on_mobile"":false,""language"":""en-US"",""screen_resolution"":[1440,900],""platform"":""MacIntel"",""timezone"":""Europe/Berlin""}","12","5174.280000000936","","","1558086095379","18","","","[]","Forchheim","false","false","6149.6900000056485"
"","html-voicekey-response","73","451787","0.0-4.69-0.69","pq2bk2n2oes8f1y","{""user_agent"":""Mozilla/5.0 (Macintosh; Intel Mac OS X 10_14_4) AppleWebKit/537.36 (KHTML, like Gecko) Chrome/74.0.3729.131 Safari/537.36"",""on_chrome"":true,""on_mobile"":false,""language"":""en-US"",""screen_resolution"":[1440,900],""platform"":""MacIntel"",""timezone"":""Europe/Berlin""}","12","1554.725000003446","","","1558086105532","16","","Schwangau","[]","Schwangau","true","false","2721.270000001823"
"","html-voicekey-response","74","454054","0.0-4.70-0.70","pq2bk2n2oes8f1y","{""user_agent"":""Mozilla/5.0 (Macintosh; Intel Mac OS X 10_14_4) AppleWebKit/537.36 (KHTML, like Gecko) Chrome/74.0.3729.131 Safari/537.36"",""on_chrome"":true,""on_mobile"":false,""language"":""en-US"",""screen_resolution"":[1440,900],""platform"":""MacIntel"",""timezone"":""Europe/Berlin""}","12","304.0199999976088","","","1558086108857","17","","Leipzig","[]","Leipzig","true","false","1662.7249999946798"
"","html-voicekey-response","75","458104","0.0-4.71-0.71","pq2bk2n2oes8f1y","{""user_agent"":""Mozilla/5.0 (Macintosh; Intel Mac OS X 10_14_4) AppleWebKit/537.36 (KHTML, like Gecko) Chrome/74.0.3729.131 Safari/537.36"",""on_chrome"":true,""on_mobile"":false,""language"":""en-US"",""screen_resolution"":[1440,900],""platform"":""MacIntel"",""timezone"":""Europe/Berlin""}","12","2603.4749999979163","","","1558086111124","5","","Aachen","[]","Aachen","true","false","3445.6949999948847"
"","html-voicekey-response","76","461504","0.0-4.72-0.72","pq2bk2n2oes8f1y","{""user_agent"":""Mozilla/5.0 (Macintosh; Intel Mac OS X 10_14_4) AppleWebKit/537.36 (KHTML, like Gecko) Chrome/74.0.3729.131 Safari/537.36"",""on_chrome"":true,""on_mobile"":false,""language"":""en-US"",""screen_resolution"":[1440,900],""platform"":""MacIntel"",""timezone"":""Europe/Berlin""}","12","1837.309999997006","","","1558086115173","1","","Magdeburg","[]","Magdeburg","true","false","2795.7600000008824"
"","html-voicekey-response","77","464866","0.0-4.73-0.73","pq2bk2n2oes8f1y","{""user_agent"":""Mozilla/5.0 (Macintosh; Intel Mac OS X 10_14_4) AppleWebKit/537.36 (KHTML, like Gecko) Chrome/74.0.3729.131 Safari/537.36"",""on_chrome"":true,""on_mobile"":false,""language"":""en-US"",""screen_resolution"":[1440,900],""platform"":""MacIntel"",""timezone"":""Europe/Berlin""}","12","1848.2349999993226","","","1558086118574","3","","Ingolstadt","[]","Ingolstadt","true","false","2757.6499999995576"
"","html-voicekey-response","78","468164","0.0-4.74-0.74","pq2bk2n2oes8f1y","{""user_agent"":""Mozilla/5.0 (Macintosh; Intel Mac OS X 10_14_4) AppleWebKit/537.36 (KHTML, like Gecko) Chrome/74.0.3729.131 Safari/537.36"",""on_chrome"":true,""on_mobile"":false,""language"":""en-US"",""screen_resolution"":[1440,900],""platform"":""MacIntel"",""timezone"":""Europe/Berlin""}","12","1720.224999998964","","","1558086121935","15","","Nürnberg","[]","Nürnberg","true","false","2695.6199999985984"
"","html-voicekey-response","79","471098","0.0-4.75-0.75","pq2bk2n2oes8f1y","{""user_agent"":""Mozilla/5.0 (Macintosh; Intel Mac OS X 10_14_4) AppleWebKit/537.36 (KHTML, like Gecko) Chrome/74.0.3729.131 Safari/537.36"",""on_chrome"":true,""on_mobile"":false,""language"":""en-US"",""screen_resolution"":[1440,900],""platform"":""MacIntel"",""timezone"":""Europe/Berlin""}","12","1538.0200000016252","","","1558086125235","19","","Frankfurt","[]","Frankfurt","true","true","2329.540000006091"
"","html-voicekey-response","80","473606","0.0-4.76-0.76","pq2bk2n2oes8f1y","{""user_agent"":""Mozilla/5.0 (Macintosh; Intel Mac OS X 10_14_4) AppleWebKit/537.36 (KHTML, like Gecko) Chrome/74.0.3729.131 Safari/537.36"",""on_chrome"":true,""on_mobile"":false,""language"":""en-US"",""screen_resolution"":[1440,900],""platform"":""MacIntel"",""timezone"":""Europe/Berlin""}","12","1061.9749999985565","","","1558086128168","20","","Hamburg ","[]","Hamburg ","true","true","1904.5599999953993"
"","html-voicekey-response","81","476806","0.0-4.77-0.77","pq2bk2n2oes8f1y","{""user_agent"":""Mozilla/5.0 (Macintosh; Intel Mac OS X 10_14_4) AppleWebKit/537.36 (KHTML, like Gecko) Chrome/74.0.3729.131 Safari/537.36"",""on_chrome"":true,""on_mobile"":false,""language"":""en-US"",""screen_resolution"":[1440,900],""platform"":""MacIntel"",""timezone"":""Europe/Berlin""}","12","1854.0750000045869","","","1558086130676","19","","Frankfurt","[]","Frankfurt","true","false","2595.2800000013667"
"","html-voicekey-response","82","479006","0.0-4.78-0.78","pq2bk2n2oes8f1y","{""user_agent"":""Mozilla/5.0 (Macintosh; Intel Mac OS X 10_14_4) AppleWebKit/537.36 (KHTML, like Gecko) Chrome/74.0.3729.131 Safari/537.36"",""on_chrome"":true,""on_mobile"":false,""language"":""en-US"",""screen_resolution"":[1440,900],""platform"":""MacIntel"",""timezone"":""Europe/Berlin""}","12","755.0599999975296","","","1558086133875","20","","Hamburg ","[]","Hamburg ","true","false","1596.8700000012177"
"","html-voicekey-response","83","481989","0.0-4.79-0.79","pq2bk2n2oes8f1y","{""user_agent"":""Mozilla/5.0 (Macintosh; Intel Mac OS X 10_14_4) AppleWebKit/537.36 (KHTML, like Gecko) Chrome/74.0.3729.131 Safari/537.36"",""on_chrome"":true,""on_mobile"":false,""language"":""en-US"",""screen_resolution"":[1440,900],""platform"":""MacIntel"",""timezone"":""Europe/Berlin""}","12","1671.8049999997952","","","1558086136076","8","","Gotha","[]","Gotha","true","false","2380.060000003141"
"","html-voicekey-response","84","485531","0.0-4.80-0.80","pq2bk2n2oes8f1y","{""user_agent"":""Mozilla/5.0 (Macintosh; Intel Mac OS X 10_14_4) AppleWebKit/537.36 (KHTML, like Gecko) Chrome/74.0.3729.131 Safari/537.36"",""on_chrome"":true,""on_mobile"":false,""language"":""en-US"",""screen_resolution"":[1440,900],""platform"":""MacIntel"",""timezone"":""Europe/Berlin""}","12","1562.3000000067173","","","1558086139060","21","","Konstanz","[]","Konstanz","true","true","2937.3150000028545"
"","html-voicekey-response","85","493165","0.0-4.81-0.81","pq2bk2n2oes8f1y","{""user_agent"":""Mozilla/5.0 (Macintosh; Intel Mac OS X 10_14_4) AppleWebKit/537.36 (KHTML, like Gecko) Chrome/74.0.3729.131 Safari/537.36"",""on_chrome"":true,""on_mobile"":false,""language"":""en-US"",""screen_resolution"":[1440,900],""platform"":""MacIntel"",""timezone"":""Europe/Berlin""}","12","3004.140000006219","","","1558086142601","18","","","[]","Forchheim","false","false","3630.2550000036717"
"","html-voicekey-response","86","498190","0.0-4.82-0.82","pq2bk2n2oes8f1y","{""user_agent"":""Mozilla/5.0 (Macintosh; Intel Mac OS X 10_14_4) AppleWebKit/537.36 (KHTML, like Gecko) Chrome/74.0.3729.131 Safari/537.36"",""on_chrome"":true,""on_mobile"":false,""language"":""en-US"",""screen_resolution"":[1440,900],""platform"":""MacIntel"",""timezone"":""Europe/Berlin""}","12","3899.839999999886","","","1558086150238","21","","Konstanz","[]","Konstanz","true","false","4417.479999996431"
"","html-voicekey-response","87","502906","0.0-4.83-0.83","pq2bk2n2oes8f1y","{""user_agent"":""Mozilla/5.0 (Macintosh; Intel Mac OS X 10_14_4) AppleWebKit/537.36 (KHTML, like Gecko) Chrome/74.0.3729.131 Safari/537.36"",""on_chrome"":true,""on_mobile"":false,""language"":""en-US"",""screen_resolution"":[1440,900],""platform"":""MacIntel"",""timezone"":""Europe/Berlin""}","12","3153.1100000009524","","","1558086155260","11","","Alfeld","[]","Alfeld","true","false","4112.424999999348"
"","html-voicekey-response","88","505657","0.0-4.84-0.84","pq2bk2n2oes8f1y","{""user_agent"":""Mozilla/5.0 (Macintosh; Intel Mac OS X 10_14_4) AppleWebKit/537.36 (KHTML, like Gecko) Chrome/74.0.3729.131 Safari/537.36"",""on_chrome"":true,""on_mobile"":false,""language"":""en-US"",""screen_resolution"":[1440,900],""platform"":""MacIntel"",""timezone"":""Europe/Berlin""}","12","1370.6249999975903","","","1558086159976","22","","Bamberg","[]","Bamberg","true","true","2145.93999999488"
"","html-voicekey-response","89","508619","0.0-4.85-0.85","pq2bk2n2oes8f1y","{""user_agent"":""Mozilla/5.0 (Macintosh; Intel Mac OS X 10_14_4) AppleWebKit/537.36 (KHTML, like Gecko) Chrome/74.0.3729.131 Safari/537.36"",""on_chrome"":true,""on_mobile"":false,""language"":""en-US"",""screen_resolution"":[1440,900],""platform"":""MacIntel"",""timezone"":""Europe/Berlin""}","12","1114.7749999962166","","","1558086162727","23","","Stuttgart","[]","Stuttgart","true","true","2357.880000003206"
"","html-voicekey-response","90","517668","0.0-4.86-0.86","pq2bk2n2oes8f1y","{""user_agent"":""Mozilla/5.0 (Macintosh; Intel Mac OS X 10_14_4) AppleWebKit/537.36 (KHTML, like Gecko) Chrome/74.0.3729.131 Safari/537.36"",""on_chrome"":true,""on_mobile"":false,""language"":""en-US"",""screen_resolution"":[1440,900],""platform"":""MacIntel"",""timezone"":""Europe/Berlin""}","12","4502.099999999546","","","1558086165689","22","","","[]","Bamberg","false","false","5044.699999998556"
"","html-voicekey-response","91","520958","0.0-4.87-0.87","pq2bk2n2oes8f1y","{""user_agent"":""Mozilla/5.0 (Macintosh; Intel Mac OS X 10_14_4) AppleWebKit/537.36 (KHTML, like Gecko) Chrome/74.0.3729.131 Safari/537.36"",""on_chrome"":true,""on_mobile"":false,""language"":""en-US"",""screen_resolution"":[1440,900],""platform"":""MacIntel"",""timezone"":""Europe/Berlin""}","12","2170.7100000001724","","","1558086174738","23","","Stuttgart","[]","Stuttgart","true","false","2686.5749999997206"
"","html-voicekey-response","92","523775","0.0-4.88-0.88","pq2bk2n2oes8f1y","{""user_agent"":""Mozilla/5.0 (Macintosh; Intel Mac OS X 10_14_4) AppleWebKit/537.36 (KHTML, like Gecko) Chrome/74.0.3729.131 Safari/537.36"",""on_chrome"":true,""on_mobile"":false,""language"":""en-US"",""screen_resolution"":[1440,900],""platform"":""MacIntel"",""timezone"":""Europe/Berlin""}","12","1754.0349999997766","","","1558086178028","19","","Frankfurt","[]","Frankfurt","true","false","2212.7049999980954"
"","html-voicekey-response","93","526474","0.0-4.89-0.89","pq2bk2n2oes8f1y","{""user_agent"":""Mozilla/5.0 (Macintosh; Intel Mac OS X 10_14_4) AppleWebKit/537.36 (KHTML, like Gecko) Chrome/74.0.3729.131 Safari/537.36"",""on_chrome"":true,""on_mobile"":false,""language"":""en-US"",""screen_resolution"":[1440,900],""platform"":""MacIntel"",""timezone"":""Europe/Berlin""}","12","1587.3749999971828","","","1558086180845","20","","Hamburg ","[]","Hamburg ","true","false","2095.9250000014435"
"","html-voicekey-response","94","529491","0.0-4.90-0.90","pq2bk2n2oes8f1y","{""user_agent"":""Mozilla/5.0 (Macintosh; Intel Mac OS X 10_14_4) AppleWebKit/537.36 (KHTML, like Gecko) Chrome/74.0.3729.131 Safari/537.36"",""on_chrome"":true,""on_mobile"":false,""language"":""en-US"",""screen_resolution"":[1440,900],""platform"":""MacIntel"",""timezone"":""Europe/Berlin""}","12","1902.8550000019372","","","1558086183544","7","","Erfurt","[]","Erfurt","true","false","2412.8899999995483"
"","html-voicekey-response","95","536383","0.0-4.91-0.91","pq2bk2n2oes8f1y","{""user_agent"":""Mozilla/5.0 (Macintosh; Intel Mac OS X 10_14_4) AppleWebKit/537.36 (KHTML, like Gecko) Chrome/74.0.3729.131 Safari/537.36"",""on_chrome"":true,""on_mobile"":false,""language"":""en-US"",""screen_resolution"":[1440,900],""platform"":""MacIntel"",""timezone"":""Europe/Berlin""}","12","1728.7549999981188","","","1558086186561","18","","","[]","Forchheim","false","false","2887.5199999966426"
"","html-voicekey-response","96","539349","0.0-4.92-0.92","pq2bk2n2oes8f1y","{""user_agent"":""Mozilla/5.0 (Macintosh; Intel Mac OS X 10_14_4) AppleWebKit/537.36 (KHTML, like Gecko) Chrome/74.0.3729.131 Safari/537.36"",""on_chrome"":true,""on_mobile"":false,""language"":""en-US"",""screen_resolution"":[1440,900],""platform"":""MacIntel"",""timezone"":""Europe/Berlin""}","12","1837.0150000062772","","","1558086193453","5","","Aachen","[]","Aachen","true","false","2362.260000001639"
"","html-voicekey-response","97","541857","0.0-4.93-0.93","pq2bk2n2oes8f1y","{""user_agent"":""Mozilla/5.0 (Macintosh; Intel Mac OS X 10_14_4) AppleWebKit/537.36 (KHTML, like Gecko) Chrome/74.0.3729.131 Safari/537.36"",""on_chrome"":true,""on_mobile"":false,""language"":""en-US"",""screen_resolution"":[1440,900],""platform"":""MacIntel"",""timezone"":""Europe/Berlin""}","12","1144.2750000003493","","","1558086196419","6","","Dresden","[]","Dresden","true","false","1903.6300000007031"
"","html-voicekey-response","98","544322","0.0-4.94-0.94","pq2bk2n2oes8f1y","{""user_agent"":""Mozilla/5.0 (Macintosh; Intel Mac OS X 10_14_4) AppleWebKit/537.36 (KHTML, like Gecko) Chrome/74.0.3729.131 Safari/537.36"",""on_chrome"":true,""on_mobile"":false,""language"":""en-US"",""screen_resolution"":[1440,900],""platform"":""MacIntel"",""timezone"":""Europe/Berlin""}","12","1352.450000000163","","","1558086198928","4","","Würzburg","[]","Würzburg","true","false","1860.9599999981"
"","html-voicekey-response","99","547373","0.0-4.95-0.95","pq2bk2n2oes8f1y","{""user_agent"":""Mozilla/5.0 (Macintosh; Intel Mac OS X 10_14_4) AppleWebKit/537.36 (KHTML, like Gecko) Chrome/74.0.3729.131 Safari/537.36"",""on_chrome"":true,""on_mobile"":false,""language"":""en-US"",""screen_resolution"":[1440,900],""platform"":""MacIntel"",""timezone"":""Europe/Berlin""}","12","1654.094999999716","","","1558086201393","21","","Konstanz","[]","Konstanz","true","false","2446.174999997369"
"","html-voicekey-response","100","550192","0.0-4.96-0.96","pq2bk2n2oes8f1y","{""user_agent"":""Mozilla/5.0 (Macintosh; Intel Mac OS X 10_14_4) AppleWebKit/537.36 (KHTML, like Gecko) Chrome/74.0.3729.131 Safari/537.36"",""on_chrome"":true,""on_mobile"":false,""language"":""en-US"",""screen_resolution"":[1440,900],""platform"":""MacIntel"",""timezone"":""Europe/Berlin""}","12","1620.445000002021","","","1558086204443","24","","Köln","[]","Köln","true","true","2213.0900000047404"
"","html-voicekey-response","101","553347","0.0-4.97-0.97","pq2bk2n2oes8f1y","{""user_agent"":""Mozilla/5.0 (Macintosh; Intel Mac OS X 10_14_4) AppleWebKit/537.36 (KHTML, like Gecko) Chrome/74.0.3729.131 Safari/537.36"",""on_chrome"":true,""on_mobile"":false,""language"":""en-US"",""screen_resolution"":[1440,900],""platform"":""MacIntel"",""timezone"":""Europe/Berlin""}","12","1009.614999997057","","","1558086207262","25","","Osnabrück","[]","Osnabrück","true","true","2551.3149999969173"
"","html-voicekey-response","102","556365","0.0-4.98-0.98","pq2bk2n2oes8f1y","{""user_agent"":""Mozilla/5.0 (Macintosh; Intel Mac OS X 10_14_4) AppleWebKit/537.36 (KHTML, like Gecko) Chrome/74.0.3729.131 Safari/537.36"",""on_chrome"":true,""on_mobile"":false,""language"":""en-US"",""screen_resolution"":[1440,900],""platform"":""MacIntel"",""timezone"":""Europe/Berlin""}","12","1886.5600000007312","","","1558086210418","24","","Köln","[]","Köln","true","false","2411.9149999970105"
"","html-voicekey-response","103","559931","0.0-4.99-0.99","pq2bk2n2oes8f1y","{""user_agent"":""Mozilla/5.0 (Macintosh; Intel Mac OS X 10_14_4) AppleWebKit/537.36 (KHTML, like Gecko) Chrome/74.0.3729.131 Safari/537.36"",""on_chrome"":true,""on_mobile"":false,""language"":""en-US"",""screen_resolution"":[1440,900],""platform"":""MacIntel"",""timezone"":""Europe/Berlin""}","12","2219.954999994929","","","1558086213435","25","","Osnabrück","[]","Osnabrück","true","false","2961.589999999036"
"","html-voicekey-response","104","568694","0.0-4.100-0.100","pq2bk2n2oes8f1y","{""user_agent"":""Mozilla/5.0 (Macintosh; Intel Mac OS X 10_14_4) AppleWebKit/537.36 (KHTML, like Gecko) Chrome/74.0.3729.131 Safari/537.36"",""on_chrome"":true,""on_mobile"":false,""language"":""en-US"",""screen_resolution"":[1440,900],""platform"":""MacIntel"",""timezone"":""Europe/Berlin""}","12","4082.2249999999535","","","1558086217001","22","","","[]","Bamberg","false","false","4757.744999995222"
"","html-voicekey-response","105","578544","0.0-4.101-0.101","pq2bk2n2oes8f1y","{""user_agent"":""Mozilla/5.0 (Macintosh; Intel Mac OS X 10_14_4) AppleWebKit/537.36 (KHTML, like Gecko) Chrome/74.0.3729.131 Safari/537.36"",""on_chrome"":true,""on_mobile"":false,""language"":""en-US"",""screen_resolution"":[1440,900],""platform"":""MacIntel"",""timezone"":""Europe/Berlin""}","12","5153.615000004624","","","1558086225764","18","","","[]","Forchheim","false","false","5845.229999998934"
"","html-voicekey-response","106","583758","0.0-4.102-0.102","pq2bk2n2oes8f1y","{""user_agent"":""Mozilla/5.0 (Macintosh; Intel Mac OS X 10_14_4) AppleWebKit/537.36 (KHTML, like Gecko) Chrome/74.0.3729.131 Safari/537.36"",""on_chrome"":true,""on_mobile"":false,""language"":""en-US"",""screen_resolution"":[1440,900],""platform"":""MacIntel"",""timezone"":""Europe/Berlin""}","12","3934.224999998906","","","1558086235614","11","","Alfeld","[]","Alfeld","true","false","4609.5599999971455"
"","html-voicekey-response","107","585942","0.0-4.103-0.103","pq2bk2n2oes8f1y","{""user_agent"":""Mozilla/5.0 (Macintosh; Intel Mac OS X 10_14_4) AppleWebKit/537.36 (KHTML, like Gecko) Chrome/74.0.3729.131 Safari/537.36"",""on_chrome"":true,""on_mobile"":false,""language"":""en-US"",""screen_resolution"":[1440,900],""platform"":""MacIntel"",""timezone"":""Europe/Berlin""}","12","1119.680000005034","","","1558086240828","23","","Stuttgart","[]","Stuttgart","true","false","1578.3650000012713"
"","html-voicekey-response","108","596219","0.0-4.104-0.104","pq2bk2n2oes8f1y","{""user_agent"":""Mozilla/5.0 (Macintosh; Intel Mac OS X 10_14_4) AppleWebKit/537.36 (KHTML, like Gecko) Chrome/74.0.3729.131 Safari/537.36"",""on_chrome"":true,""on_mobile"":false,""language"":""en-US"",""screen_resolution"":[1440,900],""platform"":""MacIntel"",""timezone"":""Europe/Berlin""}","12","5247.485000001592","","","1558086243012","15","","","[]","Nürnberg","false","false","6272.830000001704"
"","html-voicekey-response","109","604693","0.0-4.105-0.105","pq2bk2n2oes8f1y","{""user_agent"":""Mozilla/5.0 (Macintosh; Intel Mac OS X 10_14_4) AppleWebKit/537.36 (KHTML, like Gecko) Chrome/74.0.3729.131 Safari/537.36"",""on_chrome"":true,""on_mobile"":false,""language"":""en-US"",""screen_resolution"":[1440,900],""platform"":""MacIntel"",""timezone"":""Europe/Berlin""}","12","2735.435000003991","","","1558086253290","18","","","[]","Forchheim","false","false","4468.955000003916"
"","html-voicekey-response","110","609761","0.0-4.106-0.106","pq2bk2n2oes8f1y","{""user_agent"":""Mozilla/5.0 (Macintosh; Intel Mac OS X 10_14_4) AppleWebKit/537.36 (KHTML, like Gecko) Chrome/74.0.3729.131 Safari/537.36"",""on_chrome"":true,""on_mobile"":false,""language"":""en-US"",""screen_resolution"":[1440,900],""platform"":""MacIntel"",""timezone"":""Europe/Berlin""}","12","3834.88499999824","","","1558086261764","11","","Alfeld","[]","Alfeld","true","false","4461.0150000007125"
"","html-voicekey-response","111","614600","0.0-4.107-0.107","pq2bk2n2oes8f1y","{""user_agent"":""Mozilla/5.0 (Macintosh; Intel Mac OS X 10_14_4) AppleWebKit/537.36 (KHTML, like Gecko) Chrome/74.0.3729.131 Safari/537.36"",""on_chrome"":true,""on_mobile"":false,""language"":""en-US"",""screen_resolution"":[1440,900],""platform"":""MacIntel"",""timezone"":""Europe/Berlin""}","12","3292.199999997951","","","1558086266832","3","","Ingolstadt","[]","Ingolstadt","true","false","4233.89499999769"
"","html-voicekey-response","112","617032","0.0-4.108-0.108","pq2bk2n2oes8f1y","{""user_agent"":""Mozilla/5.0 (Macintosh; Intel Mac OS X 10_14_4) AppleWebKit/537.36 (KHTML, like Gecko) Chrome/74.0.3729.131 Safari/537.36"",""on_chrome"":true,""on_mobile"":false,""language"":""en-US"",""screen_resolution"":[1440,900],""platform"":""MacIntel"",""timezone"":""Europe/Berlin""}","12","1451.7749999958091","","","1558086271671","24","","Köln","[]","Köln","true","false","1827.5649999997113"
"","html-voicekey-response","113","621848","0.0-4.109-0.109","pq2bk2n2oes8f1y","{""user_agent"":""Mozilla/5.0 (Macintosh; Intel Mac OS X 10_14_4) AppleWebKit/537.36 (KHTML, like Gecko) Chrome/74.0.3729.131 Safari/537.36"",""on_chrome"":true,""on_mobile"":false,""language"":""en-US"",""screen_resolution"":[1440,900],""platform"":""MacIntel"",""timezone"":""Europe/Berlin""}","12","3653.6700000014157","","","1558086274103","22","","Bamberg","[]","Bamberg","true","false","4211.000000003027"
"","html-voicekey-response","114","630359","0.0-4.110-0.110","pq2bk2n2oes8f1y","{""user_agent"":""Mozilla/5.0 (Macintosh; Intel Mac OS X 10_14_4) AppleWebKit/537.36 (KHTML, like Gecko) Chrome/74.0.3729.131 Safari/537.36"",""on_chrome"":true,""on_mobile"":false,""language"":""en-US"",""screen_resolution"":[1440,900],""platform"":""MacIntel"",""timezone"":""Europe/Berlin""}","12","3963.0100000011503","","","1558086278920","25","","","[]","Osnabrück","false","false","4505.349999999395"
"","html-voicekey-response","115","638560","0.0-4.111-0.111","pq2bk2n2oes8f1y","{""user_agent"":""Mozilla/5.0 (Macintosh; Intel Mac OS X 10_14_4) AppleWebKit/537.36 (KHTML, like Gecko) Chrome/74.0.3729.131 Safari/537.36"",""on_chrome"":true,""on_mobile"":false,""language"":""en-US"",""screen_resolution"":[1440,900],""platform"":""MacIntel"",""timezone"":""Europe/Berlin""}","12","3434.394999998249","","","1558086287430","18","","","[]","Forchheim","false","false","4193.9599999968195"
"","html-voicekey-response","116","643383","0.0-4.112-0.112","pq2bk2n2oes8f1y","{""user_agent"":""Mozilla/5.0 (Macintosh; Intel Mac OS X 10_14_4) AppleWebKit/537.36 (KHTML, like Gecko) Chrome/74.0.3729.131 Safari/537.36"",""on_chrome"":true,""on_mobile"":false,""language"":""en-US"",""screen_resolution"":[1440,900],""platform"":""MacIntel"",""timezone"":""Europe/Berlin""}","12","3558.095000001928","","","1558086295632","11","","Alfeld","[]","Alfeld","true","false","4216.925000000512"
"","html-voicekey-response","117","650134","0.0-4.113-0.113","pq2bk2n2oes8f1y","{""user_agent"":""Mozilla/5.0 (Macintosh; Intel Mac OS X 10_14_4) AppleWebKit/537.36 (KHTML, like Gecko) Chrome/74.0.3729.131 Safari/537.36"",""on_chrome"":true,""on_mobile"":false,""language"":""en-US"",""screen_resolution"":[1440,900],""platform"":""MacIntel"",""timezone"":""Europe/Berlin""}","12","Infinity","","","1558086300454","15","","Nürnberg","[]","Nürnberg","true","false","6144.179999995627"
"","html-voicekey-response","118","653094","0.0-4.114-0.114","pq2bk2n2oes8f1y","{""user_agent"":""Mozilla/5.0 (Macintosh; Intel Mac OS X 10_14_4) AppleWebKit/537.36 (KHTML, like Gecko) Chrome/74.0.3729.131 Safari/537.36"",""on_chrome"":true,""on_mobile"":false,""language"":""en-US"",""screen_resolution"":[1440,900],""platform"":""MacIntel"",""timezone"":""Europe/Berlin""}","12","1730.8100000025938","","","1558086307204","8","","Gotha","[]","Gotha","true","false","2355.295000001206"
"","html-voicekey-response","119","658630","0.0-4.115-0.115","pq2bk2n2oes8f1y","{""user_agent"":""Mozilla/5.0 (Macintosh; Intel Mac OS X 10_14_4) AppleWebKit/537.36 (KHTML, like Gecko) Chrome/74.0.3729.131 Safari/537.36"",""on_chrome"":true,""on_mobile"":false,""language"":""en-US"",""screen_resolution"":[1440,900],""platform"":""MacIntel"",""timezone"":""Europe/Berlin""}","12","4253.61500000311","","","1558086310165","22","","Bamberg","[]","Bamberg","true","false","4928.7750000003725"
"","html-voicekey-response","120","666869","0.0-4.116-0.116","pq2bk2n2oes8f1y","{""user_agent"":""Mozilla/5.0 (Macintosh; Intel Mac OS X 10_14_4) AppleWebKit/537.36 (KHTML, like Gecko) Chrome/74.0.3729.131 Safari/537.36"",""on_chrome"":true,""on_mobile"":false,""language"":""en-US"",""screen_resolution"":[1440,900],""platform"":""MacIntel"",""timezone"":""Europe/Berlin""}","12","2592.2949999966427","","","1558086315701","18","","","[]","Forchheim","false","false","4234.324999997625"
"","html-voicekey-response","121","669838","0.0-4.117-0.117","pq2bk2n2oes8f1y","{""user_agent"":""Mozilla/5.0 (Macintosh; Intel Mac OS X 10_14_4) AppleWebKit/537.36 (KHTML, like Gecko) Chrome/74.0.3729.131 Safari/537.36"",""on_chrome"":true,""on_mobile"":false,""language"":""en-US"",""screen_resolution"":[1440,900],""platform"":""MacIntel"",""timezone"":""Europe/Berlin""}","12","1701.5550000011922","","","1558086323941","9","","München","[]","München","true","false","2360.8899999961723"
"","html-voicekey-response","122","676677","0.0-4.118-0.118","pq2bk2n2oes8f1y","{""user_agent"":""Mozilla/5.0 (Macintosh; Intel Mac OS X 10_14_4) AppleWebKit/537.36 (KHTML, like Gecko) Chrome/74.0.3729.131 Safari/537.36"",""on_chrome"":true,""on_mobile"":false,""language"":""en-US"",""screen_resolution"":[1440,900],""platform"":""MacIntel"",""timezone"":""Europe/Berlin""}","12","5625.804999997699","","","1558086326909","18","","Forchheim","[]","Forchheim","true","false","6234.304999998189"
"","html-voicekey-response","123","686344","0.0-4.119-0.119","pq2bk2n2oes8f1y","{""user_agent"":""Mozilla/5.0 (Macintosh; Intel Mac OS X 10_14_4) AppleWebKit/537.36 (KHTML, like Gecko) Chrome/74.0.3729.131 Safari/537.36"",""on_chrome"":true,""on_mobile"":false,""language"":""en-US"",""screen_resolution"":[1440,900],""platform"":""MacIntel"",""timezone"":""Europe/Berlin""}","12","4068.854999999376","","","1558086333749","25","","","[]","Osnabrück","false","false","5661.179999995511"
"","html-voicekey-response","124","691938","0.0-4.120-0.120","pq2bk2n2oes8f1y","{""user_agent"":""Mozilla/5.0 (Macintosh; Intel Mac OS X 10_14_4) AppleWebKit/537.36 (KHTML, like Gecko) Chrome/74.0.3729.131 Safari/537.36"",""on_chrome"":true,""on_mobile"":false,""language"":""en-US"",""screen_resolution"":[1440,900],""platform"":""MacIntel"",""timezone"":""Europe/Berlin""}","12","Infinity","","","1558086343415","11","","Alfeld","[]","Alfeld","true","false","4988.2050000014715"
"","html-voicekey-response","125","699629","0.0-4.121-0.121","pq2bk2n2oes8f1y","{""user_agent"":""Mozilla/5.0 (Macintosh; Intel Mac OS X 10_14_4) AppleWebKit/537.36 (KHTML, like Gecko) Chrome/74.0.3729.131 Safari/537.36"",""on_chrome"":true,""on_mobile"":false,""language"":""en-US"",""screen_resolution"":[1440,900],""platform"":""MacIntel"",""timezone"":""Europe/Berlin""}","12","2843.150000002212","","","1558086349009","18","","","[]","Forchheim","false","false","3685.414999999921"
"","html-voicekey-response","126","709662","0.0-4.122-0.122","pq2bk2n2oes8f1y","{""user_agent"":""Mozilla/5.0 (Macintosh; Intel Mac OS X 10_14_4) AppleWebKit/537.36 (KHTML, like Gecko) Chrome/74.0.3729.131 Safari/537.36"",""on_chrome"":true,""on_mobile"":false,""language"":""en-US"",""screen_resolution"":[1440,900],""platform"":""MacIntel"",""timezone"":""Europe/Berlin""}","12","4567.985000003106","","","1558086356701","22","","","[]","Bamberg","false","false","6026.995000000228"
"","html-voicekey-response","127","712874","0.0-4.123-0.123","pq2bk2n2oes8f1y","{""user_agent"":""Mozilla/5.0 (Macintosh; Intel Mac OS X 10_14_4) AppleWebKit/537.36 (KHTML, like Gecko) Chrome/74.0.3729.131 Safari/537.36"",""on_chrome"":true,""on_mobile"":false,""language"":""en-US"",""screen_resolution"":[1440,900],""platform"":""MacIntel"",""timezone"":""Europe/Berlin""}","12","Infinity","","","1558086366734","11","","Alfeld","[]","Alfeld","true","false","2606.0999999971827"
"","html-voicekey-response","128","722259","0.0-4.124-0.124","pq2bk2n2oes8f1y","{""user_agent"":""Mozilla/5.0 (Macintosh; Intel Mac OS X 10_14_4) AppleWebKit/537.36 (KHTML, like Gecko) Chrome/74.0.3729.131 Safari/537.36"",""on_chrome"":true,""on_mobile"":false,""language"":""en-US"",""screen_resolution"":[1440,900],""platform"":""MacIntel"",""timezone"":""Europe/Berlin""}","12","3900.6800000004937","","","1558086369946","18","","","[]","Forchheim","false","false","5376.304999998072"
"","html-voicekey-response","129","726347","0.0-4.125-0.125","pq2bk2n2oes8f1y","{""user_agent"":""Mozilla/5.0 (Macintosh; Intel Mac OS X 10_14_4) AppleWebKit/537.36 (KHTML, like Gecko) Chrome/74.0.3729.131 Safari/537.36"",""on_chrome"":true,""on_mobile"":false,""language"":""en-US"",""screen_resolution"":[1440,900],""platform"":""MacIntel"",""timezone"":""Europe/Berlin""}","12","100","","","1558086379331","15","","Nürnberg","[]","Nürnberg","true","false","3482.244999999297"
"","html-voicekey-response","130","730031","0.0-4.126-0.126","pq2bk2n2oes8f1y","{""user_agent"":""Mozilla/5.0 (Macintosh; Intel Mac OS X 10_14_4) AppleWebKit/537.36 (KHTML, like Gecko) Chrome/74.0.3729.131 Safari/537.36"",""on_chrome"":true,""on_mobile"":false,""language"":""en-US"",""screen_resolution"":[1440,900],""platform"":""MacIntel"",""timezone"":""Europe/Berlin""}","12","2403.005000001844","","","1558086383418","11","","Alfeld","[]","Alfeld","true","false","3077.6550000009593"
"","html-voicekey-response","131","733572","0.0-4.127-0.127","pq2bk2n2oes8f1y","{""user_agent"":""Mozilla/5.0 (Macintosh; Intel Mac OS X 10_14_4) AppleWebKit/537.36 (KHTML, like Gecko) Chrome/74.0.3729.131 Safari/537.36"",""on_chrome"":true,""on_mobile"":false,""language"":""en-US"",""screen_resolution"":[1440,900],""platform"":""MacIntel"",""timezone"":""Europe/Berlin""}","12","2326.4250000009547","","","1558086387103","18","","Forchheim","[]","Forchheim","true","false","2935.000000005006"
"","html-voicekey-response","132","745122","0.0-4.128-0.128","pq2bk2n2oes8f1y","{""user_agent"":""Mozilla/5.0 (Macintosh; Intel Mac OS X 10_14_4) AppleWebKit/537.36 (KHTML, like Gecko) Chrome/74.0.3729.131 Safari/537.36"",""on_chrome"":true,""on_mobile"":false,""language"":""en-US"",""screen_resolution"":[1440,900],""platform"":""MacIntel"",""timezone"":""Europe/Berlin""}","12","5018.514999997778","","","1558086390643","25","","","[]","Osnabrück","false","false","7544.459999997402"
"","html-voicekey-response","133","750234","0.0-4.129-0.129","pq2bk2n2oes8f1y","{""user_agent"":""Mozilla/5.0 (Macintosh; Intel Mac OS X 10_14_4) AppleWebKit/537.36 (KHTML, like Gecko) Chrome/74.0.3729.131 Safari/537.36"",""on_chrome"":true,""on_mobile"":false,""language"":""en-US"",""screen_resolution"":[1440,900],""platform"":""MacIntel"",""timezone"":""Europe/Berlin""}","12","Infinity","","","1558086402195","3","","Ingolstadt","[]","Ingolstadt","true","false","4504.6199999997625"
"","html-voicekey-response","134","754351","0.0-4.130-0.130","pq2bk2n2oes8f1y","{""user_agent"":""Mozilla/5.0 (Macintosh; Intel Mac OS X 10_14_4) AppleWebKit/537.36 (KHTML, like Gecko) Chrome/74.0.3729.131 Safari/537.36"",""on_chrome"":true,""on_mobile"":false,""language"":""en-US"",""screen_resolution"":[1440,900],""platform"":""MacIntel"",""timezone"":""Europe/Berlin""}","12","3034.359999999497","","","1558086407306","18","","Forchheim","[]","Forchheim","true","false","3509.8450000004377"
"","html-voicekey-response","135","757925","0.0-4.131-0.131","pq2bk2n2oes8f1y","{""user_agent"":""Mozilla/5.0 (Macintosh; Intel Mac OS X 10_14_4) AppleWebKit/537.36 (KHTML, like Gecko) Chrome/74.0.3729.131 Safari/537.36"",""on_chrome"":true,""on_mobile"":false,""language"":""en-US"",""screen_resolution"":[1440,900],""platform"":""MacIntel"",""timezone"":""Europe/Berlin""}","12","2542.9999999993947","","","1558086411423","11","","Alfeld","[]","Alfeld","true","false","2968.0200000002515"
"","html-voicekey-response","136","762925","0.0-4.132-0.132","pq2bk2n2oes8f1y","{""user_agent"":""Mozilla/5.0 (Macintosh; Intel Mac OS X 10_14_4) AppleWebKit/537.36 (KHTML, like Gecko) Chrome/74.0.3729.131 Safari/537.36"",""on_chrome"":true,""on_mobile"":false,""language"":""en-US"",""screen_resolution"":[1440,900],""platform"":""MacIntel"",""timezone"":""Europe/Berlin""}","12","3901.7450000045123","","","1558086414997","18","","Forchheim","[]","Forchheim","true","false","4393.535000002827"
"","html-voicekey-response","137","766559","0.0-4.133-0.133","pq2bk2n2oes8f1y","{""user_agent"":""Mozilla/5.0 (Macintosh; Intel Mac OS X 10_14_4) AppleWebKit/537.36 (KHTML, like Gecko) Chrome/74.0.3729.131 Safari/537.36"",""on_chrome"":true,""on_mobile"":false,""language"":""en-US"",""screen_resolution"":[1440,900],""platform"":""MacIntel"",""timezone"":""Europe/Berlin""}","12","2667.260000003595","","","1558086419998","13","","Chemnitz","[]","Chemnitz","true","false","3025.789999999688"
"","html-voicekey-response","138","770253","0.0-4.134-0.134","pq2bk2n2oes8f1y","{""user_agent"":""Mozilla/5.0 (Macintosh; Intel Mac OS X 10_14_4) AppleWebKit/537.36 (KHTML, like Gecko) Chrome/74.0.3729.131 Safari/537.36"",""on_chrome"":true,""on_mobile"":false,""language"":""en-US"",""screen_resolution"":[1440,900],""platform"":""MacIntel"",""timezone"":""Europe/Berlin""}","12","2694.6350000014995","","","1558086423631","18","","Forchheim","[]","Forchheim","true","false","3087.704999998212"
"","html-voicekey-response","139","774169","0.0-4.135-0.135","pq2bk2n2oes8f1y","{""user_agent"":""Mozilla/5.0 (Macintosh; Intel Mac OS X 10_14_4) AppleWebKit/537.36 (KHTML, like Gecko) Chrome/74.0.3729.131 Safari/537.36"",""on_chrome"":true,""on_mobile"":false,""language"":""en-US"",""screen_resolution"":[1440,900],""platform"":""MacIntel"",""timezone"":""Europe/Berlin""}","12","2750.2850000036183","","","1558086427327","25","","Osnabrück","[]","Osnabrück","true","false","3308.46500000183"
"","html-voicekey-response","140","780371","0.0-4.136-0.136","pq2bk2n2oes8f1y","{""user_agent"":""Mozilla/5.0 (Macintosh; Intel Mac OS X 10_14_4) AppleWebKit/537.36 (KHTML, like Gecko) Chrome/74.0.3729.131 Safari/537.36"",""on_chrome"":true,""on_mobile"":false,""language"":""en-US"",""screen_resolution"":[1440,900],""platform"":""MacIntel"",""timezone"":""Europe/Berlin""}","12","4984.500000000326","","","1558086431242","22","","Bamberg","[]","Bamberg","true","false","5593.240000001853"
"","html-voicekey-response","141","783577","0.0-4.137-0.137","pq2bk2n2oes8f1y","{""user_agent"":""Mozilla/5.0 (Macintosh; Intel Mac OS X 10_14_4) AppleWebKit/537.36 (KHTML, like Gecko) Chrome/74.0.3729.131 Safari/537.36"",""on_chrome"":true,""on_mobile"":false,""language"":""en-US"",""screen_resolution"":[1440,900],""platform"":""MacIntel"",""timezone"":""Europe/Berlin""}","12","2089.050000004098","","","1558086437445","18","","Forchheim","[]","Forchheim","true","false","2597.5049999980256"
"","html-voicekey-response","142","791927","0.0-4.138-0.138","pq2bk2n2oes8f1y","{""user_agent"":""Mozilla/5.0 (Macintosh; Intel Mac OS X 10_14_4) AppleWebKit/537.36 (KHTML, like Gecko) Chrome/74.0.3729.131 Safari/537.36"",""on_chrome"":true,""on_mobile"":false,""language"":""en-US"",""screen_resolution"":[1440,900],""platform"":""MacIntel"",""timezone"":""Europe/Berlin""}","12","3018.3399999966846","","","1558086440650","10","","","[]","Heidelberg","false","false","4343.515000000363"
"","html-voicekey-response","143","795241","0.0-4.139-0.139","pq2bk2n2oes8f1y","{""user_agent"":""Mozilla/5.0 (Macintosh; Intel Mac OS X 10_14_4) AppleWebKit/537.36 (KHTML, like Gecko) Chrome/74.0.3729.131 Safari/537.36"",""on_chrome"":true,""on_mobile"":false,""language"":""en-US"",""screen_resolution"":[1440,900],""platform"":""MacIntel"",""timezone"":""Europe/Berlin""}","12","1748.7899999995484","","","1558086449002","11","","Alfeld","[]","Alfeld","true","false","2705.0299999973504"
"","html-voicekey-response","144","800090","0.0-4.140-0.140","pq2bk2n2oes8f1y","{""user_agent"":""Mozilla/5.0 (Macintosh; Intel Mac OS X 10_14_4) AppleWebKit/537.36 (KHTML, like Gecko) Chrome/74.0.3729.131 Safari/537.36"",""on_chrome"":true,""on_mobile"":false,""language"":""en-US"",""screen_resolution"":[1440,900],""platform"":""MacIntel"",""timezone"":""Europe/Berlin""}","12","3631.1999999977184","","","1558086452315","22","","Bamberg","[]","Bamberg","true","false","4240.969999998808"
"","html-voicekey-response","145","803273","0.0-4.141-0.141","pq2bk2n2oes8f1y","{""user_agent"":""Mozilla/5.0 (Macintosh; Intel Mac OS X 10_14_4) AppleWebKit/537.36 (KHTML, like Gecko) Chrome/74.0.3729.131 Safari/537.36"",""on_chrome"":true,""on_mobile"":false,""language"":""en-US"",""screen_resolution"":[1440,900],""platform"":""MacIntel"",""timezone"":""Europe/Berlin""}","12","1966.9700000029757","","","1558086457164","18","","Forchheim","[]","Forchheim","true","false","2574.379999998142"
"","html-voicekey-response","146","808799","0.0-4.142-0.142","pq2bk2n2oes8f1y","{""user_agent"":""Mozilla/5.0 (Macintosh; Intel Mac OS X 10_14_4) AppleWebKit/537.36 (KHTML, like Gecko) Chrome/74.0.3729.131 Safari/537.36"",""on_chrome"":true,""on_mobile"":false,""language"":""en-US"",""screen_resolution"":[1440,900],""platform"":""MacIntel"",""timezone"":""Europe/Berlin""}","12","4325.384999998239","","","1558086460347","3","","Ingolstadt","[]","Ingolstadt","true","false","4917.569999997853"
"","html-voicekey-response","147","811382","0.0-4.143-0.143","pq2bk2n2oes8f1y","{""user_agent"":""Mozilla/5.0 (Macintosh; Intel Mac OS X 10_14_4) AppleWebKit/537.36 (KHTML, like Gecko) Chrome/74.0.3729.131 Safari/537.36"",""on_chrome"":true,""on_mobile"":false,""language"":""en-US"",""screen_resolution"":[1440,900],""platform"":""MacIntel"",""timezone"":""Europe/Berlin""}","12","1549.8850000020816","","","1558086465872","12","","Dessau","[]","Dessau","true","false","1975.5500000028405"
"","html-voicekey-response","148","819650","0.0-4.144-0.144","pq2bk2n2oes8f1y","{""user_agent"":""Mozilla/5.0 (Macintosh; Intel Mac OS X 10_14_4) AppleWebKit/537.36 (KHTML, like Gecko) Chrome/74.0.3729.131 Safari/537.36"",""on_chrome"":true,""on_mobile"":false,""language"":""en-US"",""screen_resolution"":[1440,900],""platform"":""MacIntel"",""timezone"":""Europe/Berlin""}","12","Infinity","","","1558086468456","14","","Potsdam","[]","Potsdam","true","false","7657.760000001872"
"","html-voicekey-response","149","822840","0.0-4.145-0.145","pq2bk2n2oes8f1y","{""user_agent"":""Mozilla/5.0 (Macintosh; Intel Mac OS X 10_14_4) AppleWebKit/537.36 (KHTML, like Gecko) Chrome/74.0.3729.131 Safari/537.36"",""on_chrome"":true,""on_mobile"":false,""language"":""en-US"",""screen_resolution"":[1440,900],""platform"":""MacIntel"",""timezone"":""Europe/Berlin""}","12","2022.5149999985938","","","1558086476724","18","","Forchheim","[]","Forchheim","true","false","2581.3750000015134"
"","html-voicekey-response","150","826690","0.0-4.146-0.146","pq2bk2n2oes8f1y","{""user_agent"":""Mozilla/5.0 (Macintosh; Intel Mac OS X 10_14_4) AppleWebKit/537.36 (KHTML, like Gecko) Chrome/74.0.3729.131 Safari/537.36"",""on_chrome"":true,""on_mobile"":false,""language"":""en-US"",""screen_resolution"":[1440,900],""platform"":""MacIntel"",""timezone"":""Europe/Berlin""}","12","2300.095000000298","","","1558086479913","11","","Alfeld","[]","Alfeld","true","false","3242.040000004694"
