"value","trial_type","trial_index","time_elapsed","internal_node_id","subject","browser_info","participant_number","rt","responses","view_history","presentation_start_time","id","text","response","keypresses","answer","correct","study","experimenter_rt"
"","call-function","0","11","0.0-0.0","ac9vf15jdlz5bd1","{""user_agent"":""Mozilla/5.0 (Macintosh; Intel Mac OS X 10_14_4) AppleWebKit/537.36 (KHTML, like Gecko) Chrome/74.0.3729.131 Safari/537.36"",""on_chrome"":true,""on_mobile"":false,""language"":""en-US"",""screen_resolution"":[1440,900],""platform"":""MacIntel"",""timezone"":""Europe/Berlin""}","13","","","","","","","","","","","",""
"","survey-text","1","6879","0.0-1.0","ac9vf15jdlz5bd1","{""user_agent"":""Mozilla/5.0 (Macintosh; Intel Mac OS X 10_14_4) AppleWebKit/537.36 (KHTML, like Gecko) Chrome/74.0.3729.131 Safari/537.36"",""on_chrome"":true,""on_mobile"":false,""language"":""en-US"",""screen_resolution"":[1440,900],""platform"":""MacIntel"",""timezone"":""Europe/Berlin""}","13","6866","{""Q0"":""13""}","","","","","","","","","",""
"","instructions","2","93230","0.0-2.0","ac9vf15jdlz5bd1","{""user_agent"":""Mozilla/5.0 (Macintosh; Intel Mac OS X 10_14_4) AppleWebKit/537.36 (KHTML, like Gecko) Chrome/74.0.3729.131 Safari/537.36"",""on_chrome"":true,""on_mobile"":false,""language"":""en-US"",""screen_resolution"":[1440,900],""platform"":""MacIntel"",""timezone"":""Europe/Berlin""}","13","86350","","[{""page_index"":0,""viewing_time"":86349}]","","","","","","","","",""
"","call-function","3","93230","0.0-3.0","ac9vf15jdlz5bd1","{""user_agent"":""Mozilla/5.0 (Macintosh; Intel Mac OS X 10_14_4) AppleWebKit/537.36 (KHTML, like Gecko) Chrome/74.0.3729.131 Safari/537.36"",""on_chrome"":true,""on_mobile"":false,""language"":""en-US"",""screen_resolution"":[1440,900],""platform"":""MacIntel"",""timezone"":""Europe/Berlin""}","13","","","","","","","","","","","",""
"","html-voicekey-response","4","96013","0.0-4.0-0.0","ac9vf15jdlz5bd1","{""user_agent"":""Mozilla/5.0 (Macintosh; Intel Mac OS X 10_14_4) AppleWebKit/537.36 (KHTML, like Gecko) Chrome/74.0.3729.131 Safari/537.36"",""on_chrome"":true,""on_mobile"":false,""language"":""en-US"",""screen_resolution"":[1440,900],""platform"":""MacIntel"",""timezone"":""Europe/Berlin""}","13","927.7200000013457","","","1558336948745","1","","Magdeburg","[]","Magdeburg","true","true","2178.524999995716"
"","html-voicekey-response","5","100062","0.0-4.1-0.1","ac9vf15jdlz5bd1","{""user_agent"":""Mozilla/5.0 (Macintosh; Intel Mac OS X 10_14_4) AppleWebKit/537.36 (KHTML, like Gecko) Chrome/74.0.3729.131 Safari/537.36"",""on_chrome"":true,""on_mobile"":false,""language"":""en-US"",""screen_resolution"":[1440,900],""platform"":""MacIntel"",""timezone"":""Europe/Berlin""}","13","2717.7150000005263","","","1558336951529","1","","Magdeburg","[]","Magdeburg","true","false","3443.2900000101654"
"","html-voicekey-response","6","103694","0.0-4.2-0.2","ac9vf15jdlz5bd1","{""user_agent"":""Mozilla/5.0 (Macintosh; Intel Mac OS X 10_14_4) AppleWebKit/537.36 (KHTML, like Gecko) Chrome/74.0.3729.131 Safari/537.36"",""on_chrome"":true,""on_mobile"":false,""language"":""en-US"",""screen_resolution"":[1440,900],""platform"":""MacIntel"",""timezone"":""Europe/Berlin""}","13","2088.525000008149","","","1558336955575","2","","Berlin","[]","Berlin","true","true","3029.8900000052527"
"","html-voicekey-response","7","107403","0.0-4.3-0.3","ac9vf15jdlz5bd1","{""user_agent"":""Mozilla/5.0 (Macintosh; Intel Mac OS X 10_14_4) AppleWebKit/537.36 (KHTML, like Gecko) Chrome/74.0.3729.131 Safari/537.36"",""on_chrome"":true,""on_mobile"":false,""language"":""en-US"",""screen_resolution"":[1440,900],""platform"":""MacIntel"",""timezone"":""Europe/Berlin""}","13","2373.020000008028","","","1558336959207","2","","Berlin","[]","Berlin","true","false","3106.7049999983283"
"","html-voicekey-response","8","111403","0.0-4.4-0.4","ac9vf15jdlz5bd1","{""user_agent"":""Mozilla/5.0 (Macintosh; Intel Mac OS X 10_14_4) AppleWebKit/537.36 (KHTML, like Gecko) Chrome/74.0.3729.131 Safari/537.36"",""on_chrome"":true,""on_mobile"":false,""language"":""en-US"",""screen_resolution"":[1440,900],""platform"":""MacIntel"",""timezone"":""Europe/Berlin""}","13","2205.929999990831","","","1558336962916","3","","Ingolstadt","[]","Ingolstadt","true","true","3398.300000000745"
"","html-voicekey-response","9","117454","0.0-4.5-0.5","ac9vf15jdlz5bd1","{""user_agent"":""Mozilla/5.0 (Macintosh; Intel Mac OS X 10_14_4) AppleWebKit/537.36 (KHTML, like Gecko) Chrome/74.0.3729.131 Safari/537.36"",""on_chrome"":true,""on_mobile"":false,""language"":""en-US"",""screen_resolution"":[1440,900],""platform"":""MacIntel"",""timezone"":""Europe/Berlin""}","13","4405.154999994766","","","1558336966917","4","","Würzburg","[]","Würzburg","true","true","5447.620000006282"
"","html-voicekey-response","10","120365","0.0-4.6-0.6","ac9vf15jdlz5bd1","{""user_agent"":""Mozilla/5.0 (Macintosh; Intel Mac OS X 10_14_4) AppleWebKit/537.36 (KHTML, like Gecko) Chrome/74.0.3729.131 Safari/537.36"",""on_chrome"":true,""on_mobile"":false,""language"":""en-US"",""screen_resolution"":[1440,900],""platform"":""MacIntel"",""timezone"":""Europe/Berlin""}","13","1583.1449999912643","","","1558336972967","3","","Ingolstadt","[]","Ingolstadt","true","false","2308.6550000007264"
"","html-voicekey-response","11","132267","0.0-4.7-0.7","ac9vf15jdlz5bd1","{""user_agent"":""Mozilla/5.0 (Macintosh; Intel Mac OS X 10_14_4) AppleWebKit/537.36 (KHTML, like Gecko) Chrome/74.0.3729.131 Safari/537.36"",""on_chrome"":true,""on_mobile"":false,""language"":""en-US"",""screen_resolution"":[1440,900],""platform"":""MacIntel"",""timezone"":""Europe/Berlin""}","13","6855.919999996177","","","1558336975878","4","","","[]","Würzburg","false","false","7898.430000001099"
"","html-voicekey-response","12","135191","0.0-4.8-0.8","ac9vf15jdlz5bd1","{""user_agent"":""Mozilla/5.0 (Macintosh; Intel Mac OS X 10_14_4) AppleWebKit/537.36 (KHTML, like Gecko) Chrome/74.0.3729.131 Safari/537.36"",""on_chrome"":true,""on_mobile"":false,""language"":""en-US"",""screen_resolution"":[1440,900],""platform"":""MacIntel"",""timezone"":""Europe/Berlin""}","13","1495.8999999888242","","","1558336987780","5","","Aachen","[]","Aachen","true","true","2321.4650000008987"
"","html-voicekey-response","13","137775","0.0-4.9-0.9","ac9vf15jdlz5bd1","{""user_agent"":""Mozilla/5.0 (Macintosh; Intel Mac OS X 10_14_4) AppleWebKit/537.36 (KHTML, like Gecko) Chrome/74.0.3729.131 Safari/537.36"",""on_chrome"":true,""on_mobile"":false,""language"":""en-US"",""screen_resolution"":[1440,900],""platform"":""MacIntel"",""timezone"":""Europe/Berlin""}","13","1271.4549999889919","","","1558336990704","1","","Magdeburg","[]","Magdeburg","true","false","1981.2949999904959"
"","html-voicekey-response","14","145048","0.0-4.10-0.10","ac9vf15jdlz5bd1","{""user_agent"":""Mozilla/5.0 (Macintosh; Intel Mac OS X 10_14_4) AppleWebKit/537.36 (KHTML, like Gecko) Chrome/74.0.3729.131 Safari/537.36"",""on_chrome"":true,""on_mobile"":false,""language"":""en-US"",""screen_resolution"":[1440,900],""platform"":""MacIntel"",""timezone"":""Europe/Berlin""}","13","2203.8850000042935","","","1558336993288","5","","","[]","Aachen","false","false","3270.4300000041258"
"","html-voicekey-response","15","147281","0.0-4.11-0.11","ac9vf15jdlz5bd1","{""user_agent"":""Mozilla/5.0 (Macintosh; Intel Mac OS X 10_14_4) AppleWebKit/537.36 (KHTML, like Gecko) Chrome/74.0.3729.131 Safari/537.36"",""on_chrome"":true,""on_mobile"":false,""language"":""en-US"",""screen_resolution"":[1440,900],""platform"":""MacIntel"",""timezone"":""Europe/Berlin""}","13","989.4650000004098","","","1558337000561","2","","Berlin","[]","Berlin","true","false","1630.9949999995297"
"","html-voicekey-response","16","150515","0.0-4.12-0.12","ac9vf15jdlz5bd1","{""user_agent"":""Mozilla/5.0 (Macintosh; Intel Mac OS X 10_14_4) AppleWebKit/537.36 (KHTML, like Gecko) Chrome/74.0.3729.131 Safari/537.36"",""on_chrome"":true,""on_mobile"":false,""language"":""en-US"",""screen_resolution"":[1440,900],""platform"":""MacIntel"",""timezone"":""Europe/Berlin""}","13","1422.4249999914086","","","1558337002795","6","","Dresden","[]","Dresden","true","true","2631.8000000028405"
"","html-voicekey-response","17","154074","0.0-4.13-0.13","ac9vf15jdlz5bd1","{""user_agent"":""Mozilla/5.0 (Macintosh; Intel Mac OS X 10_14_4) AppleWebKit/537.36 (KHTML, like Gecko) Chrome/74.0.3729.131 Safari/537.36"",""on_chrome"":true,""on_mobile"":false,""language"":""en-US"",""screen_resolution"":[1440,900],""platform"":""MacIntel"",""timezone"":""Europe/Berlin""}","13","2263.4800000031014","","","1558337006029","7","","Erfurt","[]","Erfurt","true","true","2956.1550000071293"
"","html-voicekey-response","18","157706","0.0-4.14-0.14","ac9vf15jdlz5bd1","{""user_agent"":""Mozilla/5.0 (Macintosh; Intel Mac OS X 10_14_4) AppleWebKit/537.36 (KHTML, like Gecko) Chrome/74.0.3729.131 Safari/537.36"",""on_chrome"":true,""on_mobile"":false,""language"":""en-US"",""screen_resolution"":[1440,900],""platform"":""MacIntel"",""timezone"":""Europe/Berlin""}","13","2188.074999992596","","","1558337009587","6","","Dresden","[]","Dresden","true","false","3030.335000003106"
"","html-voicekey-response","19","162451","0.0-4.15-0.15","ac9vf15jdlz5bd1","{""user_agent"":""Mozilla/5.0 (Macintosh; Intel Mac OS X 10_14_4) AppleWebKit/537.36 (KHTML, like Gecko) Chrome/74.0.3729.131 Safari/537.36"",""on_chrome"":true,""on_mobile"":false,""language"":""en-US"",""screen_resolution"":[1440,900],""platform"":""MacIntel"",""timezone"":""Europe/Berlin""}","13","3538.95500000529","","","1558337013220","7","","Erfurt","[]","Erfurt","true","false","4142.149999999674"
"","html-voicekey-response","20","165651","0.0-4.16-0.16","ac9vf15jdlz5bd1","{""user_agent"":""Mozilla/5.0 (Macintosh; Intel Mac OS X 10_14_4) AppleWebKit/537.36 (KHTML, like Gecko) Chrome/74.0.3729.131 Safari/537.36"",""on_chrome"":true,""on_mobile"":false,""language"":""en-US"",""screen_resolution"":[1440,900],""platform"":""MacIntel"",""timezone"":""Europe/Berlin""}","13","1505.715000000992","","","1558337017964","8","","Gotha","[]","Gotha","true","true","2598.0500000005122"
"","html-voicekey-response","21","168867","0.0-4.17-0.17","ac9vf15jdlz5bd1","{""user_agent"":""Mozilla/5.0 (Macintosh; Intel Mac OS X 10_14_4) AppleWebKit/537.36 (KHTML, like Gecko) Chrome/74.0.3729.131 Safari/537.36"",""on_chrome"":true,""on_mobile"":false,""language"":""en-US"",""screen_resolution"":[1440,900],""platform"":""MacIntel"",""timezone"":""Europe/Berlin""}","13","1555.060000007716","","","1558337021165","3","","Ingolstadt","[]","Ingolstadt","true","false","2613.7500000040745"
"","html-voicekey-response","22","175203","0.0-4.18-0.18","ac9vf15jdlz5bd1","{""user_agent"":""Mozilla/5.0 (Macintosh; Intel Mac OS X 10_14_4) AppleWebKit/537.36 (KHTML, like Gecko) Chrome/74.0.3729.131 Safari/537.36"",""on_chrome"":true,""on_mobile"":false,""language"":""en-US"",""screen_resolution"":[1440,900],""platform"":""MacIntel"",""timezone"":""Europe/Berlin""}","13","5055.650000003725","","","1558337024381","8","","Gotha","[]","Gotha","true","false","5730.965000009746"
"","html-voicekey-response","23","179542","0.0-4.19-0.19","ac9vf15jdlz5bd1","{""user_agent"":""Mozilla/5.0 (Macintosh; Intel Mac OS X 10_14_4) AppleWebKit/537.36 (KHTML, like Gecko) Chrome/74.0.3729.131 Safari/537.36"",""on_chrome"":true,""on_mobile"":false,""language"":""en-US"",""screen_resolution"":[1440,900],""platform"":""MacIntel"",""timezone"":""Europe/Berlin""}","13","3161.0049999961398","","","1558337030717","4","","Würzburg","[]","Würzburg","true","false","3736.4999999990687"
"","html-voicekey-response","24","182125","0.0-4.20-0.20","ac9vf15jdlz5bd1","{""user_agent"":""Mozilla/5.0 (Macintosh; Intel Mac OS X 10_14_4) AppleWebKit/537.36 (KHTML, like Gecko) Chrome/74.0.3729.131 Safari/537.36"",""on_chrome"":true,""on_mobile"":false,""language"":""en-US"",""screen_resolution"":[1440,900],""platform"":""MacIntel"",""timezone"":""Europe/Berlin""}","13","1305.2000000114554","","","1558337035056","9","","München","[]","München","true","true","1980.7550000114134"
"","html-voicekey-response","25","200442","0.0-4.21-0.21","ac9vf15jdlz5bd1","{""user_agent"":""Mozilla/5.0 (Macintosh; Intel Mac OS X 10_14_4) AppleWebKit/537.36 (KHTML, like Gecko) Chrome/74.0.3729.131 Safari/537.36"",""on_chrome"":true,""on_mobile"":false,""language"":""en-US"",""screen_resolution"":[1440,900],""platform"":""MacIntel"",""timezone"":""Europe/Berlin""}","13","13603.47499999064","","","1558337037640","5","","","[]","Aachen","false","false","14312.664999990375"
"","html-voicekey-response","26","203295","0.0-4.22-0.22","ac9vf15jdlz5bd1","{""user_agent"":""Mozilla/5.0 (Macintosh; Intel Mac OS X 10_14_4) AppleWebKit/537.36 (KHTML, like Gecko) Chrome/74.0.3729.131 Safari/537.36"",""on_chrome"":true,""on_mobile"":false,""language"":""en-US"",""screen_resolution"":[1440,900],""platform"":""MacIntel"",""timezone"":""Europe/Berlin""}","13","1591.72500000007","","","1558337055955","9","","München","[]","München","true","false","2250.5999999993946"
"","html-voicekey-response","27","206162","0.0-4.23-0.23","ac9vf15jdlz5bd1","{""user_agent"":""Mozilla/5.0 (Macintosh; Intel Mac OS X 10_14_4) AppleWebKit/537.36 (KHTML, like Gecko) Chrome/74.0.3729.131 Safari/537.36"",""on_chrome"":true,""on_mobile"":false,""language"":""en-US"",""screen_resolution"":[1440,900],""platform"":""MacIntel"",""timezone"":""Europe/Berlin""}","13","1404.5799999965589","","","1558337058809","6","","Dresden","[]","Dresden","true","false","2263.969999999972"
"","html-voicekey-response","28","212387","0.0-4.24-0.24","ac9vf15jdlz5bd1","{""user_agent"":""Mozilla/5.0 (Macintosh; Intel Mac OS X 10_14_4) AppleWebKit/537.36 (KHTML, like Gecko) Chrome/74.0.3729.131 Safari/537.36"",""on_chrome"":true,""on_mobile"":false,""language"":""en-US"",""screen_resolution"":[1440,900],""platform"":""MacIntel"",""timezone"":""Europe/Berlin""}","13","4969.85000000298","","","1558337061677","7","","Erfurt","[]","Erfurt","true","false","5619.839999999385"
"","html-voicekey-response","29","215537","0.0-4.25-0.25","ac9vf15jdlz5bd1","{""user_agent"":""Mozilla/5.0 (Macintosh; Intel Mac OS X 10_14_4) AppleWebKit/537.36 (KHTML, like Gecko) Chrome/74.0.3729.131 Safari/537.36"",""on_chrome"":true,""on_mobile"":false,""language"":""en-US"",""screen_resolution"":[1440,900],""platform"":""MacIntel"",""timezone"":""Europe/Berlin""}","13","1671.2999999961817","","","1558337067901","10","","Heidelberg","[]","Heidelberg","true","true","2547.069999985979"
"","html-voicekey-response","30","226421","0.0-4.26-0.26","ac9vf15jdlz5bd1","{""user_agent"":""Mozilla/5.0 (Macintosh; Intel Mac OS X 10_14_4) AppleWebKit/537.36 (KHTML, like Gecko) Chrome/74.0.3729.131 Safari/537.36"",""on_chrome"":true,""on_mobile"":false,""language"":""en-US"",""screen_resolution"":[1440,900],""platform"":""MacIntel"",""timezone"":""Europe/Berlin""}","13","6104.180000003753","","","1558337071051","8","","","[]","Gotha","false","false","6879.700000004959"
"","html-voicekey-response","31","230781","0.0-4.27-0.27","ac9vf15jdlz5bd1","{""user_agent"":""Mozilla/5.0 (Macintosh; Intel Mac OS X 10_14_4) AppleWebKit/537.36 (KHTML, like Gecko) Chrome/74.0.3729.131 Safari/537.36"",""on_chrome"":true,""on_mobile"":false,""language"":""en-US"",""screen_resolution"":[1440,900],""platform"":""MacIntel"",""timezone"":""Europe/Berlin""}","13","100","","","1558337081935","10","","Heidelberg","[]","Heidelberg","true","false","3757.855000003474"
"","html-voicekey-response","32","239198","0.0-4.28-0.28","ac9vf15jdlz5bd1","{""user_agent"":""Mozilla/5.0 (Macintosh; Intel Mac OS X 10_14_4) AppleWebKit/537.36 (KHTML, like Gecko) Chrome/74.0.3729.131 Safari/537.36"",""on_chrome"":true,""on_mobile"":false,""language"":""en-US"",""screen_resolution"":[1440,900],""platform"":""MacIntel"",""timezone"":""Europe/Berlin""}","13","6787.665000005136","","","1558337086295","4","","Würzburg","[]","Würzburg","true","false","7812.940000003437"
"","html-voicekey-response","33","246409","0.0-4.29-0.29","ac9vf15jdlz5bd1","{""user_agent"":""Mozilla/5.0 (Macintosh; Intel Mac OS X 10_14_4) AppleWebKit/537.36 (KHTML, like Gecko) Chrome/74.0.3729.131 Safari/537.36"",""on_chrome"":true,""on_mobile"":false,""language"":""en-US"",""screen_resolution"":[1440,900],""platform"":""MacIntel"",""timezone"":""Europe/Berlin""}","13","2248.535000000475","","","1558337094713","5","","","[]","Aachen","false","false","3207.0850000018254"
"","html-voicekey-response","34","249544","0.0-4.30-0.30","ac9vf15jdlz5bd1","{""user_agent"":""Mozilla/5.0 (Macintosh; Intel Mac OS X 10_14_4) AppleWebKit/537.36 (KHTML, like Gecko) Chrome/74.0.3729.131 Safari/537.36"",""on_chrome"":true,""on_mobile"":false,""language"":""en-US"",""screen_resolution"":[1440,900],""platform"":""MacIntel"",""timezone"":""Europe/Berlin""}","13","2019.8699999981095","","","1558337101925","7","","Erfurt","[]","Erfurt","true","false","2529.034999999567"
"","html-voicekey-response","35","252517","0.0-4.31-0.31","ac9vf15jdlz5bd1","{""user_agent"":""Mozilla/5.0 (Macintosh; Intel Mac OS X 10_14_4) AppleWebKit/537.36 (KHTML, like Gecko) Chrome/74.0.3729.131 Safari/537.36"",""on_chrome"":true,""on_mobile"":false,""language"":""en-US"",""screen_resolution"":[1440,900],""platform"":""MacIntel"",""timezone"":""Europe/Berlin""}","13","1544.9650000026218","","","1558337105058","11","","Alfeld","[]","Alfeld","true","true","2369.650000007823"
"","html-voicekey-response","36","254884","0.0-4.32-0.32","ac9vf15jdlz5bd1","{""user_agent"":""Mozilla/5.0 (Macintosh; Intel Mac OS X 10_14_4) AppleWebKit/537.36 (KHTML, like Gecko) Chrome/74.0.3729.131 Safari/537.36"",""on_chrome"":true,""on_mobile"":false,""language"":""en-US"",""screen_resolution"":[1440,900],""platform"":""MacIntel"",""timezone"":""Europe/Berlin""}","13","1238.4850000033389","","","1558337108031","9","","München","[]","München","true","false","1764.0900000114925"
"","html-voicekey-response","37","257200","0.0-4.33-0.33","ac9vf15jdlz5bd1","{""user_agent"":""Mozilla/5.0 (Macintosh; Intel Mac OS X 10_14_4) AppleWebKit/537.36 (KHTML, like Gecko) Chrome/74.0.3729.131 Safari/537.36"",""on_chrome"":true,""on_mobile"":false,""language"":""en-US"",""screen_resolution"":[1440,900],""platform"":""MacIntel"",""timezone"":""Europe/Berlin""}","13","1154.9849999954226","","","1558337110398","11","","Alfeld","[]","Alfeld","true","false","1713.8549999945099"
"","html-voicekey-response","38","261934","0.0-4.34-0.34","ac9vf15jdlz5bd1","{""user_agent"":""Mozilla/5.0 (Macintosh; Intel Mac OS X 10_14_4) AppleWebKit/537.36 (KHTML, like Gecko) Chrome/74.0.3729.131 Safari/537.36"",""on_chrome"":true,""on_mobile"":false,""language"":""en-US"",""screen_resolution"":[1440,900],""platform"":""MacIntel"",""timezone"":""Europe/Berlin""}","13","3488.9700000001817","","","1558337112714","8","","Gotha","[]","Gotha","true","false","4130.5950000096345"
"","html-voicekey-response","39","279196","0.0-4.35-0.35","ac9vf15jdlz5bd1","{""user_agent"":""Mozilla/5.0 (Macintosh; Intel Mac OS X 10_14_4) AppleWebKit/537.36 (KHTML, like Gecko) Chrome/74.0.3729.131 Safari/537.36"",""on_chrome"":true,""on_mobile"":false,""language"":""en-US"",""screen_resolution"":[1440,900],""platform"":""MacIntel"",""timezone"":""Europe/Berlin""}","13","12650.44999999539","","","1558337117448","4","","","[]","Würzburg","false","false","13258.440000005066"
"","html-voicekey-response","40","287673","0.0-4.36-0.36","ac9vf15jdlz5bd1","{""user_agent"":""Mozilla/5.0 (Macintosh; Intel Mac OS X 10_14_4) AppleWebKit/537.36 (KHTML, like Gecko) Chrome/74.0.3729.131 Safari/537.36"",""on_chrome"":true,""on_mobile"":false,""language"":""en-US"",""screen_resolution"":[1440,900],""platform"":""MacIntel"",""timezone"":""Europe/Berlin""}","13","7345.324999996437","","","1558337134712","5","","Aachen","[]","Aachen","true","false","7870.685000001686"
"","html-voicekey-response","41","292750","0.0-4.37-0.37","ac9vf15jdlz5bd1","{""user_agent"":""Mozilla/5.0 (Macintosh; Intel Mac OS X 10_14_4) AppleWebKit/537.36 (KHTML, like Gecko) Chrome/74.0.3729.131 Safari/537.36"",""on_chrome"":true,""on_mobile"":false,""language"":""en-US"",""screen_resolution"":[1440,900],""platform"":""MacIntel"",""timezone"":""Europe/Berlin""}","13","3899.0749999882887","","","1558337143186","4","","Würzburg","[]","Würzburg","true","false","4474.575000000186"
"","html-voicekey-response","42","295483","0.0-4.38-0.38","ac9vf15jdlz5bd1","{""user_agent"":""Mozilla/5.0 (Macintosh; Intel Mac OS X 10_14_4) AppleWebKit/537.36 (KHTML, like Gecko) Chrome/74.0.3729.131 Safari/537.36"",""on_chrome"":true,""on_mobile"":false,""language"":""en-US"",""screen_resolution"":[1440,900],""platform"":""MacIntel"",""timezone"":""Europe/Berlin""}","13","738.4249999975785","","","1558337148264","10","","Heidelberg","[]","Heidelberg","true","false","2129.899999999907"
"","html-voicekey-response","43","299335","0.0-4.39-0.39","ac9vf15jdlz5bd1","{""user_agent"":""Mozilla/5.0 (Macintosh; Intel Mac OS X 10_14_4) AppleWebKit/537.36 (KHTML, like Gecko) Chrome/74.0.3729.131 Safari/537.36"",""on_chrome"":true,""on_mobile"":false,""language"":""en-US"",""screen_resolution"":[1440,900],""platform"":""MacIntel"",""timezone"":""Europe/Berlin""}","13","2771.8799999946264","","","1558337150996","8","","Gotha","[]","Gotha","true","false","3247.2750000015367"
"","html-voicekey-response","44","302575","0.0-4.40-0.40","ac9vf15jdlz5bd1","{""user_agent"":""Mozilla/5.0 (Macintosh; Intel Mac OS X 10_14_4) AppleWebKit/537.36 (KHTML, like Gecko) Chrome/74.0.3729.131 Safari/537.36"",""on_chrome"":true,""on_mobile"":false,""language"":""en-US"",""screen_resolution"":[1440,900],""platform"":""MacIntel"",""timezone"":""Europe/Berlin""}","13","2177.4200000016485","","","1558337154849","5","","Aachen","[]","Aachen","true","false","2637.384999994538"
"","html-voicekey-response","45","316074","0.0-4.41-0.41","ac9vf15jdlz5bd1","{""user_agent"":""Mozilla/5.0 (Macintosh; Intel Mac OS X 10_14_4) AppleWebKit/537.36 (KHTML, like Gecko) Chrome/74.0.3729.131 Safari/537.36"",""on_chrome"":true,""on_mobile"":false,""language"":""en-US"",""screen_resolution"":[1440,900],""platform"":""MacIntel"",""timezone"":""Europe/Berlin""}","13","Infinity","","","1558337158089","11","","Alfeld","[]","Alfeld","true","false","12896.09000000928"
"","html-voicekey-response","46","319342","0.0-4.42-0.42","ac9vf15jdlz5bd1","{""user_agent"":""Mozilla/5.0 (Macintosh; Intel Mac OS X 10_14_4) AppleWebKit/537.36 (KHTML, like Gecko) Chrome/74.0.3729.131 Safari/537.36"",""on_chrome"":true,""on_mobile"":false,""language"":""en-US"",""screen_resolution"":[1440,900],""platform"":""MacIntel"",""timezone"":""Europe/Berlin""}","13","433.44000000236554","","","1558337171593","12","","Dessau","[]","Dessau","true","true","2659.185000011348"
"","html-voicekey-response","47","328975","0.0-4.43-0.43","ac9vf15jdlz5bd1","{""user_agent"":""Mozilla/5.0 (Macintosh; Intel Mac OS X 10_14_4) AppleWebKit/537.36 (KHTML, like Gecko) Chrome/74.0.3729.131 Safari/537.36"",""on_chrome"":true,""on_mobile"":false,""language"":""en-US"",""screen_resolution"":[1440,900],""platform"":""MacIntel"",""timezone"":""Europe/Berlin""}","13","8550.270000001392","","","1558337174860","8","","Gotha","[]","Gotha","true","false","9024.594999995315"
"","html-voicekey-response","48","332766","0.0-4.44-0.44","ac9vf15jdlz5bd1","{""user_agent"":""Mozilla/5.0 (Macintosh; Intel Mac OS X 10_14_4) AppleWebKit/537.36 (KHTML, like Gecko) Chrome/74.0.3729.131 Safari/537.36"",""on_chrome"":true,""on_mobile"":false,""language"":""en-US"",""screen_resolution"":[1440,900],""platform"":""MacIntel"",""timezone"":""Europe/Berlin""}","13","2693.0499999960653","","","1558337184491","12","","Dessau","[]","Dessau","true","false","3185.349999999744"
"","html-voicekey-response","49","338298","0.0-4.45-0.45","ac9vf15jdlz5bd1","{""user_agent"":""Mozilla/5.0 (Macintosh; Intel Mac OS X 10_14_4) AppleWebKit/537.36 (KHTML, like Gecko) Chrome/74.0.3729.131 Safari/537.36"",""on_chrome"":true,""on_mobile"":false,""language"":""en-US"",""screen_resolution"":[1440,900],""platform"":""MacIntel"",""timezone"":""Europe/Berlin""}","13","4353.0450000051405","","","1558337188281","4","","Würzburg","[]","Würzburg","true","false","4928.505000003497"
"","html-voicekey-response","50","346106","0.0-4.46-0.46","ac9vf15jdlz5bd1","{""user_agent"":""Mozilla/5.0 (Macintosh; Intel Mac OS X 10_14_4) AppleWebKit/537.36 (KHTML, like Gecko) Chrome/74.0.3729.131 Safari/537.36"",""on_chrome"":true,""on_mobile"":false,""language"":""en-US"",""screen_resolution"":[1440,900],""platform"":""MacIntel"",""timezone"":""Europe/Berlin""}","13","2822.5299999993063","","","1558337193812","7","","","[]","Erfurt","false","false","3805.0599999987753"
"","html-voicekey-response","51","357090","0.0-4.47-0.47","ac9vf15jdlz5bd1","{""user_agent"":""Mozilla/5.0 (Macintosh; Intel Mac OS X 10_14_4) AppleWebKit/537.36 (KHTML, like Gecko) Chrome/74.0.3729.131 Safari/537.36"",""on_chrome"":true,""on_mobile"":false,""language"":""en-US"",""screen_resolution"":[1440,900],""platform"":""MacIntel"",""timezone"":""Europe/Berlin""}","13","Infinity","","","1558337201620","5","","Aachen","[]","Aachen","true","false","10380.974999992759"
"","html-voicekey-response","52","364372","0.0-4.48-0.48","ac9vf15jdlz5bd1","{""user_agent"":""Mozilla/5.0 (Macintosh; Intel Mac OS X 10_14_4) AppleWebKit/537.36 (KHTML, like Gecko) Chrome/74.0.3729.131 Safari/537.36"",""on_chrome"":true,""on_mobile"":false,""language"":""en-US"",""screen_resolution"":[1440,900],""platform"":""MacIntel"",""timezone"":""Europe/Berlin""}","13","4703.869999991939","","","1558337212604","11","","Alfeld","[]","Alfeld","true","false","6679.810000001453"
"","html-voicekey-response","53","373774","0.0-4.49-0.49","ac9vf15jdlz5bd1","{""user_agent"":""Mozilla/5.0 (Macintosh; Intel Mac OS X 10_14_4) AppleWebKit/537.36 (KHTML, like Gecko) Chrome/74.0.3729.131 Safari/537.36"",""on_chrome"":true,""on_mobile"":false,""language"":""en-US"",""screen_resolution"":[1440,900],""platform"":""MacIntel"",""timezone"":""Europe/Berlin""}","13","8271.294999993033","","","1558337219886","8","","Gotha","[]","Gotha","true","false","8797.59999999078"
"","html-voicekey-response","54","377751","0.0-4.50-0.50","ac9vf15jdlz5bd1","{""user_agent"":""Mozilla/5.0 (Macintosh; Intel Mac OS X 10_14_4) AppleWebKit/537.36 (KHTML, like Gecko) Chrome/74.0.3729.131 Safari/537.36"",""on_chrome"":true,""on_mobile"":false,""language"":""en-US"",""screen_resolution"":[1440,900],""platform"":""MacIntel"",""timezone"":""Europe/Berlin""}","13","2932.9299999897835","","","1558337229288","7","","Erfurt","[]","Erfurt","true","false","3373.6599999974715"
"","html-voicekey-response","55","380201","0.0-4.51-0.51","ac9vf15jdlz5bd1","{""user_agent"":""Mozilla/5.0 (Macintosh; Intel Mac OS X 10_14_4) AppleWebKit/537.36 (KHTML, like Gecko) Chrome/74.0.3729.131 Safari/537.36"",""on_chrome"":true,""on_mobile"":false,""language"":""en-US"",""screen_resolution"":[1440,900],""platform"":""MacIntel"",""timezone"":""Europe/Berlin""}","13","1322.855000000191","","","1558337233265","13","","Chemnitz","[]","Chemnitz","true","true","1847.2699999983888"
"","html-voicekey-response","56","384187","0.0-4.52-0.52","ac9vf15jdlz5bd1","{""user_agent"":""Mozilla/5.0 (Macintosh; Intel Mac OS X 10_14_4) AppleWebKit/537.36 (KHTML, like Gecko) Chrome/74.0.3729.131 Safari/537.36"",""on_chrome"":true,""on_mobile"":false,""language"":""en-US"",""screen_resolution"":[1440,900],""platform"":""MacIntel"",""timezone"":""Europe/Berlin""}","13","2854.5300000058255","","","1558337235715","12","","Dessau","[]","Dessau","true","false","3380.474999998114"
"","html-voicekey-response","57","386959","0.0-4.53-0.53","ac9vf15jdlz5bd1","{""user_agent"":""Mozilla/5.0 (Macintosh; Intel Mac OS X 10_14_4) AppleWebKit/537.36 (KHTML, like Gecko) Chrome/74.0.3729.131 Safari/537.36"",""on_chrome"":true,""on_mobile"":false,""language"":""en-US"",""screen_resolution"":[1440,900],""platform"":""MacIntel"",""timezone"":""Europe/Berlin""}","13","1610.6150000067196","","","1558337239701","13","","Chemnitz","[]","Chemnitz","true","false","2169.4050000078278"
"","html-voicekey-response","58","389576","0.0-4.54-0.54","ac9vf15jdlz5bd1","{""user_agent"":""Mozilla/5.0 (Macintosh; Intel Mac OS X 10_14_4) AppleWebKit/537.36 (KHTML, like Gecko) Chrome/74.0.3729.131 Safari/537.36"",""on_chrome"":true,""on_mobile"":false,""language"":""en-US"",""screen_resolution"":[1440,900],""platform"":""MacIntel"",""timezone"":""Europe/Berlin""}","13","1521.99500001173","","","1558337242474","11","","Alfeld","[]","Alfeld","true","false","2013.68000000366"
"","html-voicekey-response","59","396111","0.0-4.55-0.55","ac9vf15jdlz5bd1","{""user_agent"":""Mozilla/5.0 (Macintosh; Intel Mac OS X 10_14_4) AppleWebKit/537.36 (KHTML, like Gecko) Chrome/74.0.3729.131 Safari/537.36"",""on_chrome"":true,""on_mobile"":false,""language"":""en-US"",""screen_resolution"":[1440,900],""platform"":""MacIntel"",""timezone"":""Europe/Berlin""}","13","5404.929999998631","","","1558337245090","4","","Würzburg","[]","Würzburg","true","false","5930.670000001555"
"","html-voicekey-response","60","398871","0.0-4.56-0.56","ac9vf15jdlz5bd1","{""user_agent"":""Mozilla/5.0 (Macintosh; Intel Mac OS X 10_14_4) AppleWebKit/537.36 (KHTML, like Gecko) Chrome/74.0.3729.131 Safari/537.36"",""on_chrome"":true,""on_mobile"":false,""language"":""en-US"",""screen_resolution"":[1440,900],""platform"":""MacIntel"",""timezone"":""Europe/Berlin""}","13","1314.1249999988127","","","1558337251626","1","","Magdeburg","[]","Magdeburg","true","false","2156.604999996489"
"","html-voicekey-response","61","403488","0.0-4.57-0.57","ac9vf15jdlz5bd1","{""user_agent"":""Mozilla/5.0 (Macintosh; Intel Mac OS X 10_14_4) AppleWebKit/537.36 (KHTML, like Gecko) Chrome/74.0.3729.131 Safari/537.36"",""on_chrome"":true,""on_mobile"":false,""language"":""en-US"",""screen_resolution"":[1440,900],""platform"":""MacIntel"",""timezone"":""Europe/Berlin""}","13","3470.3099999986357","","","1558337254386","5","","Aachen","[]","Aachen","true","false","4012.1349999972153"
"","html-voicekey-response","62","406755","0.0-4.58-0.58","ac9vf15jdlz5bd1","{""user_agent"":""Mozilla/5.0 (Macintosh; Intel Mac OS X 10_14_4) AppleWebKit/537.36 (KHTML, like Gecko) Chrome/74.0.3729.131 Safari/537.36"",""on_chrome"":true,""on_mobile"":false,""language"":""en-US"",""screen_resolution"":[1440,900],""platform"":""MacIntel"",""timezone"":""Europe/Berlin""}","13","2104.6900000017836","","","1558337259002","7","","Erfurt","[]","Erfurt","true","false","2663.6250000010477"
"","html-voicekey-response","63","409045","0.0-4.59-0.59","ac9vf15jdlz5bd1","{""user_agent"":""Mozilla/5.0 (Macintosh; Intel Mac OS X 10_14_4) AppleWebKit/537.36 (KHTML, like Gecko) Chrome/74.0.3729.131 Safari/537.36"",""on_chrome"":true,""on_mobile"":false,""language"":""en-US"",""screen_resolution"":[1440,900],""platform"":""MacIntel"",""timezone"":""Europe/Berlin""}","13","1026.800000001304","","","1558337262270","4","","Würzburg","[]","Würzburg","true","false","1685.684999989462"
"","html-voicekey-response","64","411162","0.0-4.60-0.60","ac9vf15jdlz5bd1","{""user_agent"":""Mozilla/5.0 (Macintosh; Intel Mac OS X 10_14_4) AppleWebKit/537.36 (KHTML, like Gecko) Chrome/74.0.3729.131 Safari/537.36"",""on_chrome"":true,""on_mobile"":false,""language"":""en-US"",""screen_resolution"":[1440,900],""platform"":""MacIntel"",""timezone"":""Europe/Berlin""}","13","936.900000009546","","","1558337264560","2","","Berlin","[]","Berlin","true","false","1513.4350000007544"
"","html-voicekey-response","65","415262","0.0-4.61-0.61","ac9vf15jdlz5bd1","{""user_agent"":""Mozilla/5.0 (Macintosh; Intel Mac OS X 10_14_4) AppleWebKit/537.36 (KHTML, like Gecko) Chrome/74.0.3729.131 Safari/537.36"",""on_chrome"":true,""on_mobile"":false,""language"":""en-US"",""screen_resolution"":[1440,900],""platform"":""MacIntel"",""timezone"":""Europe/Berlin""}","13","2936.454999997141","","","1558337266677","8","","Gotha","[]","Gotha","true","false","3495.3200000018114"
"","html-voicekey-response","66","420746","0.0-4.62-0.62","ac9vf15jdlz5bd1","{""user_agent"":""Mozilla/5.0 (Macintosh; Intel Mac OS X 10_14_4) AppleWebKit/537.36 (KHTML, like Gecko) Chrome/74.0.3729.131 Safari/537.36"",""on_chrome"":true,""on_mobile"":false,""language"":""en-US"",""screen_resolution"":[1440,900],""platform"":""MacIntel"",""timezone"":""Europe/Berlin""}","13","4319.279999990458","","","1558337270777","5","","Aachen","[]","Aachen","true","false","4878.449999989243"
"","html-voicekey-response","67","423136","0.0-4.63-0.63","ac9vf15jdlz5bd1","{""user_agent"":""Mozilla/5.0 (Macintosh; Intel Mac OS X 10_14_4) AppleWebKit/537.36 (KHTML, like Gecko) Chrome/74.0.3729.131 Safari/537.36"",""on_chrome"":true,""on_mobile"":false,""language"":""en-US"",""screen_resolution"":[1440,900],""platform"":""MacIntel"",""timezone"":""Europe/Berlin""}","13","1442.7999999987428","","","1558337276262","14","","Potsdam","[]","Potsdam","true","true","1784.620000005816"
"","html-voicekey-response","68","426802","0.0-4.64-0.64","ac9vf15jdlz5bd1","{""user_agent"":""Mozilla/5.0 (Macintosh; Intel Mac OS X 10_14_4) AppleWebKit/537.36 (KHTML, like Gecko) Chrome/74.0.3729.131 Safari/537.36"",""on_chrome"":true,""on_mobile"":false,""language"":""en-US"",""screen_resolution"":[1440,900],""platform"":""MacIntel"",""timezone"":""Europe/Berlin""}","13","1703.8499999997207","","","1558337278651","12","","Dessau","[]","Dessau","true","false","3062.8949999954784"
"","html-voicekey-response","69","429419","0.0-4.65-0.65","ac9vf15jdlz5bd1","{""user_agent"":""Mozilla/5.0 (Macintosh; Intel Mac OS X 10_14_4) AppleWebKit/537.36 (KHTML, like Gecko) Chrome/74.0.3729.131 Safari/537.36"",""on_chrome"":true,""on_mobile"":false,""language"":""en-US"",""screen_resolution"":[1440,900],""platform"":""MacIntel"",""timezone"":""Europe/Berlin""}","13","1268.1050000044984","","","1558337282320","14","","Potsdam","[]","Potsdam","true","false","2010.2800000022398"
"","html-voicekey-response","70","433821","0.0-4.66-0.66","ac9vf15jdlz5bd1","{""user_agent"":""Mozilla/5.0 (Macintosh; Intel Mac OS X 10_14_4) AppleWebKit/537.36 (KHTML, like Gecko) Chrome/74.0.3729.131 Safari/537.36"",""on_chrome"":true,""on_mobile"":false,""language"":""en-US"",""screen_resolution"":[1440,900],""platform"":""MacIntel"",""timezone"":""Europe/Berlin""}","13","3153.215000007395","","","1558337284934","8","","Gotha","[]","Gotha","true","false","3796.2399999960326"
"","html-voicekey-response","71","438431","0.0-4.67-0.67","ac9vf15jdlz5bd1","{""user_agent"":""Mozilla/5.0 (Macintosh; Intel Mac OS X 10_14_4) AppleWebKit/537.36 (KHTML, like Gecko) Chrome/74.0.3729.131 Safari/537.36"",""on_chrome"":true,""on_mobile"":false,""language"":""en-US"",""screen_resolution"":[1440,900],""platform"":""MacIntel"",""timezone"":""Europe/Berlin""}","13","3380.4800000014716","","","1558337289336","5","","Aachen","[]","Aachen","true","false","4005.95500000054"
"","html-voicekey-response","72","458414","0.0-4.68-0.68","ac9vf15jdlz5bd1","{""user_agent"":""Mozilla/5.0 (Macintosh; Intel Mac OS X 10_14_4) AppleWebKit/537.36 (KHTML, like Gecko) Chrome/74.0.3729.131 Safari/537.36"",""on_chrome"":true,""on_mobile"":false,""language"":""en-US"",""screen_resolution"":[1440,900],""platform"":""MacIntel"",""timezone"":""Europe/Berlin""}","13","15202.564999993983","","","1558337293946","13","","","[]","Chemnitz","false","false","15978.61499999999"
"","html-voicekey-response","73","463964","0.0-4.69-0.69","ac9vf15jdlz5bd1","{""user_agent"":""Mozilla/5.0 (Macintosh; Intel Mac OS X 10_14_4) AppleWebKit/537.36 (KHTML, like Gecko) Chrome/74.0.3729.131 Safari/537.36"",""on_chrome"":true,""on_mobile"":false,""language"":""en-US"",""screen_resolution"":[1440,900],""platform"":""MacIntel"",""timezone"":""Europe/Berlin""}","13","4003.545000008517","","","1558337313929","8","","Gotha","[]","Gotha","true","false","4945.425000012619"
"","html-voicekey-response","74","467989","0.0-4.70-0.70","ac9vf15jdlz5bd1","{""user_agent"":""Mozilla/5.0 (Macintosh; Intel Mac OS X 10_14_4) AppleWebKit/537.36 (KHTML, like Gecko) Chrome/74.0.3729.131 Safari/537.36"",""on_chrome"":true,""on_mobile"":false,""language"":""en-US"",""screen_resolution"":[1440,900],""platform"":""MacIntel"",""timezone"":""Europe/Berlin""}","13","2886.449999999814","","","1558337319479","5","","Aachen","[]","Aachen","true","false","3420.9950000076788"
"","html-voicekey-response","75","470722","0.0-4.71-0.71","ac9vf15jdlz5bd1","{""user_agent"":""Mozilla/5.0 (Macintosh; Intel Mac OS X 10_14_4) AppleWebKit/537.36 (KHTML, like Gecko) Chrome/74.0.3729.131 Safari/537.36"",""on_chrome"":true,""on_mobile"":false,""language"":""en-US"",""screen_resolution"":[1440,900],""platform"":""MacIntel"",""timezone"":""Europe/Berlin""}","13","1653.099999990291","","","1558337323504","4","","Würzburg","[]","Würzburg","true","false","2128.724999987753"
"","html-voicekey-response","76","473439","0.0-4.72-0.72","ac9vf15jdlz5bd1","{""user_agent"":""Mozilla/5.0 (Macintosh; Intel Mac OS X 10_14_4) AppleWebKit/537.36 (KHTML, like Gecko) Chrome/74.0.3729.131 Safari/537.36"",""on_chrome"":true,""on_mobile"":false,""language"":""en-US"",""screen_resolution"":[1440,900],""platform"":""MacIntel"",""timezone"":""Europe/Berlin""}","13","1603.0100000005682","","","1558337326238","8","","Gotha","[]","Gotha","true","false","2111.4899999956833"
"","html-voicekey-response","77","477006","0.0-4.73-0.73","ac9vf15jdlz5bd1","{""user_agent"":""Mozilla/5.0 (Macintosh; Intel Mac OS X 10_14_4) AppleWebKit/537.36 (KHTML, like Gecko) Chrome/74.0.3729.131 Safari/537.36"",""on_chrome"":true,""on_mobile"":false,""language"":""en-US"",""screen_resolution"":[1440,900],""platform"":""MacIntel"",""timezone"":""Europe/Berlin""}","13","2386.3250000084286","","","1558337328955","11","","Alfeld","[]","Alfeld","true","false","2961.089999997057"
"","html-voicekey-response","78","479916","0.0-4.74-0.74","ac9vf15jdlz5bd1","{""user_agent"":""Mozilla/5.0 (Macintosh; Intel Mac OS X 10_14_4) AppleWebKit/537.36 (KHTML, like Gecko) Chrome/74.0.3729.131 Safari/537.36"",""on_chrome"":true,""on_mobile"":false,""language"":""en-US"",""screen_resolution"":[1440,900],""platform"":""MacIntel"",""timezone"":""Europe/Berlin""}","13","1796.295000001765","","","1558337332522","7","","Erfurt","[]","Erfurt","true","false","2304.839999997057"
"","html-voicekey-response","79","482418","0.0-4.75-0.75","ac9vf15jdlz5bd1","{""user_agent"":""Mozilla/5.0 (Macintosh; Intel Mac OS X 10_14_4) AppleWebKit/537.36 (KHTML, like Gecko) Chrome/74.0.3729.131 Safari/537.36"",""on_chrome"":true,""on_mobile"":false,""language"":""en-US"",""screen_resolution"":[1440,900],""platform"":""MacIntel"",""timezone"":""Europe/Berlin""}","13","1386.2650000026683","","","1558337335432","14","","Potsdam","[]","Potsdam","true","false","1895.5799999966985"
"","html-voicekey-response","80","489035","0.0-4.76-0.76","ac9vf15jdlz5bd1","{""user_agent"":""Mozilla/5.0 (Macintosh; Intel Mac OS X 10_14_4) AppleWebKit/537.36 (KHTML, like Gecko) Chrome/74.0.3729.131 Safari/537.36"",""on_chrome"":true,""on_mobile"":false,""language"":""en-US"",""screen_resolution"":[1440,900],""platform"":""MacIntel"",""timezone"":""Europe/Berlin""}","13","5501.125000004167","","","1558337337934","13","","Chemnitz","[]","Chemnitz","true","false","6010.104999993928"
"","html-voicekey-response","81","494524","0.0-4.77-0.77","ac9vf15jdlz5bd1","{""user_agent"":""Mozilla/5.0 (Macintosh; Intel Mac OS X 10_14_4) AppleWebKit/537.36 (KHTML, like Gecko) Chrome/74.0.3729.131 Safari/537.36"",""on_chrome"":true,""on_mobile"":false,""language"":""en-US"",""screen_resolution"":[1440,900],""platform"":""MacIntel"",""timezone"":""Europe/Berlin""}","13","4374.610000007879","","","1558337344551","5","","Aachen","[]","Aachen","true","false","4883.725000006962"
"","html-voicekey-response","82","498973","0.0-4.78-0.78","ac9vf15jdlz5bd1","{""user_agent"":""Mozilla/5.0 (Macintosh; Intel Mac OS X 10_14_4) AppleWebKit/537.36 (KHTML, like Gecko) Chrome/74.0.3729.131 Safari/537.36"",""on_chrome"":true,""on_mobile"":false,""language"":""en-US"",""screen_resolution"":[1440,900],""platform"":""MacIntel"",""timezone"":""Europe/Berlin""}","13","3319.0899999988965","","","1558337350041","3","","Ingolstadt","[]","Ingolstadt","true","false","3843.8049999967916"
"","html-voicekey-response","83","502580","0.0-4.79-0.79","ac9vf15jdlz5bd1","{""user_agent"":""Mozilla/5.0 (Macintosh; Intel Mac OS X 10_14_4) AppleWebKit/537.36 (KHTML, like Gecko) Chrome/74.0.3729.131 Safari/537.36"",""on_chrome"":true,""on_mobile"":false,""language"":""en-US"",""screen_resolution"":[1440,900],""platform"":""MacIntel"",""timezone"":""Europe/Berlin""}","13","2375.170000008284","","","1558337354491","5","","Aachen","[]","Aachen","true","false","2999.5300000009593"
"","html-voicekey-response","84","505729","0.0-4.80-0.80","ac9vf15jdlz5bd1","{""user_agent"":""Mozilla/5.0 (Macintosh; Intel Mac OS X 10_14_4) AppleWebKit/537.36 (KHTML, like Gecko) Chrome/74.0.3729.131 Safari/537.36"",""on_chrome"":true,""on_mobile"":false,""language"":""en-US"",""screen_resolution"":[1440,900],""platform"":""MacIntel"",""timezone"":""Europe/Berlin""}","13","1969.4300000063145","","","1558337358096","8","","Gotha","[]","Gotha","true","false","2543.9800000021933"
"","html-voicekey-response","85","508264","0.0-4.81-0.81","ac9vf15jdlz5bd1","{""user_agent"":""Mozilla/5.0 (Macintosh; Intel Mac OS X 10_14_4) AppleWebKit/537.36 (KHTML, like Gecko) Chrome/74.0.3729.131 Safari/537.36"",""on_chrome"":true,""on_mobile"":false,""language"":""en-US"",""screen_resolution"":[1440,900],""platform"":""MacIntel"",""timezone"":""Europe/Berlin""}","13","1370.0100000076695","","","1558337361246","5","","Aachen","[]","Aachen","true","false","1928.8800000067567"
"","html-voicekey-response","86","510766","0.0-4.82-0.82","ac9vf15jdlz5bd1","{""user_agent"":""Mozilla/5.0 (Macintosh; Intel Mac OS X 10_14_4) AppleWebKit/537.36 (KHTML, like Gecko) Chrome/74.0.3729.131 Safari/537.36"",""on_chrome"":true,""on_mobile"":false,""language"":""en-US"",""screen_resolution"":[1440,900],""platform"":""MacIntel"",""timezone"":""Europe/Berlin""}","13","1335.2300000058954","","","1558337363781","4","","Würzburg","[]","Würzburg","true","false","1893.1850000080885"
"","html-voicekey-response","87","513771","0.0-4.83-0.83","ac9vf15jdlz5bd1","{""user_agent"":""Mozilla/5.0 (Macintosh; Intel Mac OS X 10_14_4) AppleWebKit/537.36 (KHTML, like Gecko) Chrome/74.0.3729.131 Safari/537.36"",""on_chrome"":true,""on_mobile"":false,""language"":""en-US"",""screen_resolution"":[1440,900],""platform"":""MacIntel"",""timezone"":""Europe/Berlin""}","13","1924.9499999949244","","","1558337366282","6","","Dresden","[]","Dresden","true","false","2400.019999986398"
"","html-voicekey-response","88","516904","0.0-4.84-0.84","ac9vf15jdlz5bd1","{""user_agent"":""Mozilla/5.0 (Macintosh; Intel Mac OS X 10_14_4) AppleWebKit/537.36 (KHTML, like Gecko) Chrome/74.0.3729.131 Safari/537.36"",""on_chrome"":true,""on_mobile"":false,""language"":""en-US"",""screen_resolution"":[1440,900],""platform"":""MacIntel"",""timezone"":""Europe/Berlin""}","13","1984.7049999896904","","","1558337369288","13","","Chemnitz","[]","Chemnitz","true","false","2527.1949999878416"
"","html-voicekey-response","89","519887","0.0-4.85-0.85","ac9vf15jdlz5bd1","{""user_agent"":""Mozilla/5.0 (Macintosh; Intel Mac OS X 10_14_4) AppleWebKit/537.36 (KHTML, like Gecko) Chrome/74.0.3729.131 Safari/537.36"",""on_chrome"":true,""on_mobile"":false,""language"":""en-US"",""screen_resolution"":[1440,900],""platform"":""MacIntel"",""timezone"":""Europe/Berlin""}","13","1819.1850000092295","","","1558337372420","5","","Aachen","[]","Aachen","true","false","2378.0900000128895"
"","html-voicekey-response","90","523429","0.0-4.86-0.86","ac9vf15jdlz5bd1","{""user_agent"":""Mozilla/5.0 (Macintosh; Intel Mac OS X 10_14_4) AppleWebKit/537.36 (KHTML, like Gecko) Chrome/74.0.3729.131 Safari/537.36"",""on_chrome"":true,""on_mobile"":false,""language"":""en-US"",""screen_resolution"":[1440,900],""platform"":""MacIntel"",""timezone"":""Europe/Berlin""}","13","1685.2450000095182","","","1558337375404","15","","Nürnberg","[]","Nürnberg","true","true","2935.670000006212"
"","html-voicekey-response","91","528412","0.0-4.87-0.87","ac9vf15jdlz5bd1","{""user_agent"":""Mozilla/5.0 (Macintosh; Intel Mac OS X 10_14_4) AppleWebKit/537.36 (KHTML, like Gecko) Chrome/74.0.3729.131 Safari/537.36"",""on_chrome"":true,""on_mobile"":false,""language"":""en-US"",""screen_resolution"":[1440,900],""platform"":""MacIntel"",""timezone"":""Europe/Berlin""}","13","3935.455000007851","","","1558337378945","12","","Dessau","[]","Dessau","true","false","4377.619999999297"
"","html-voicekey-response","92","531112","0.0-4.88-0.88","ac9vf15jdlz5bd1","{""user_agent"":""Mozilla/5.0 (Macintosh; Intel Mac OS X 10_14_4) AppleWebKit/537.36 (KHTML, like Gecko) Chrome/74.0.3729.131 Safari/537.36"",""on_chrome"":true,""on_mobile"":false,""language"":""en-US"",""screen_resolution"":[1440,900],""platform"":""MacIntel"",""timezone"":""Europe/Berlin""}","13","1319.1599999934901","","","1558337383928","15","","Nürnberg","[]","Nürnberg","true","false","2094.8349999962375"
"","html-voicekey-response","93","533574","0.0-4.89-0.89","ac9vf15jdlz5bd1","{""user_agent"":""Mozilla/5.0 (Macintosh; Intel Mac OS X 10_14_4) AppleWebKit/537.36 (KHTML, like Gecko) Chrome/74.0.3729.131 Safari/537.36"",""on_chrome"":true,""on_mobile"":false,""language"":""en-US"",""screen_resolution"":[1440,900],""platform"":""MacIntel"",""timezone"":""Europe/Berlin""}","13","1131.390000003949","","","1558337386629","16","","Schwangau","[]","Schwangau","true","true","1855.245000013383"
"","html-voicekey-response","94","537157","0.0-4.90-0.90","ac9vf15jdlz5bd1","{""user_agent"":""Mozilla/5.0 (Macintosh; Intel Mac OS X 10_14_4) AppleWebKit/537.36 (KHTML, like Gecko) Chrome/74.0.3729.131 Safari/537.36"",""on_chrome"":true,""on_mobile"":false,""language"":""en-US"",""screen_resolution"":[1440,900],""platform"":""MacIntel"",""timezone"":""Europe/Berlin""}","13","2069.9050000055927","","","1558337389090","17","","Leipzig","[]","Leipzig","true","true","2977.980000010575"
"","html-voicekey-response","95","540425","0.0-4.91-0.91","ac9vf15jdlz5bd1","{""user_agent"":""Mozilla/5.0 (Macintosh; Intel Mac OS X 10_14_4) AppleWebKit/537.36 (KHTML, like Gecko) Chrome/74.0.3729.131 Safari/537.36"",""on_chrome"":true,""on_mobile"":false,""language"":""en-US"",""screen_resolution"":[1440,900],""platform"":""MacIntel"",""timezone"":""Europe/Berlin""}","13","2052.5949999954087","","","1558337392674","16","","Schwangau","[]","Schwangau","true","false","2661.80999999051"
"","html-voicekey-response","96","542626","0.0-4.92-0.92","ac9vf15jdlz5bd1","{""user_agent"":""Mozilla/5.0 (Macintosh; Intel Mac OS X 10_14_4) AppleWebKit/537.36 (KHTML, like Gecko) Chrome/74.0.3729.131 Safari/537.36"",""on_chrome"":true,""on_mobile"":false,""language"":""en-US"",""screen_resolution"":[1440,900],""platform"":""MacIntel"",""timezone"":""Europe/Berlin""}","13","918.0100000028964","","","1558337395941","17","","Leipzig","[]","Leipzig","true","false","1593.9399999915622"
"","html-voicekey-response","97","547149","0.0-4.93-0.93","ac9vf15jdlz5bd1","{""user_agent"":""Mozilla/5.0 (Macintosh; Intel Mac OS X 10_14_4) AppleWebKit/537.36 (KHTML, like Gecko) Chrome/74.0.3729.131 Safari/537.36"",""on_chrome"":true,""on_mobile"":false,""language"":""en-US"",""screen_resolution"":[1440,900],""platform"":""MacIntel"",""timezone"":""Europe/Berlin""}","13","3373.7999999955996","","","1558337398144","5","","Aachen","[]","Aachen","true","false","3915.8150000002934"
"","html-voicekey-response","98","552682","0.0-4.94-0.94","ac9vf15jdlz5bd1","{""user_agent"":""Mozilla/5.0 (Macintosh; Intel Mac OS X 10_14_4) AppleWebKit/537.36 (KHTML, like Gecko) Chrome/74.0.3729.131 Safari/537.36"",""on_chrome"":true,""on_mobile"":false,""language"":""en-US"",""screen_resolution"":[1440,900],""platform"":""MacIntel"",""timezone"":""Europe/Berlin""}","13","4334.889999992656","","","1558337402665","11","","Alfeld","[]","Alfeld","true","false","4927.364999995916"
"","html-voicekey-response","99","555356","0.0-4.95-0.95","ac9vf15jdlz5bd1","{""user_agent"":""Mozilla/5.0 (Macintosh; Intel Mac OS X 10_14_4) AppleWebKit/537.36 (KHTML, like Gecko) Chrome/74.0.3729.131 Safari/537.36"",""on_chrome"":true,""on_mobile"":false,""language"":""en-US"",""screen_resolution"":[1440,900],""platform"":""MacIntel"",""timezone"":""Europe/Berlin""}","13","1458.115000010212","","","1558337408200","5","","Aachen","[]","Aachen","true","false","2067.4399999988964"
"","html-voicekey-response","100","558088","0.0-4.96-0.96","ac9vf15jdlz5bd1","{""user_agent"":""Mozilla/5.0 (Macintosh; Intel Mac OS X 10_14_4) AppleWebKit/537.36 (KHTML, like Gecko) Chrome/74.0.3729.131 Safari/537.36"",""on_chrome"":true,""on_mobile"":false,""language"":""en-US"",""screen_resolution"":[1440,900],""platform"":""MacIntel"",""timezone"":""Europe/Berlin""}","13","1168.0300000096672","","","1558337410873","18","","Forchheim","[]","Forchheim","true","true","2126.49500000407"
"","html-voicekey-response","101","561356","0.0-4.97-0.97","ac9vf15jdlz5bd1","{""user_agent"":""Mozilla/5.0 (Macintosh; Intel Mac OS X 10_14_4) AppleWebKit/537.36 (KHTML, like Gecko) Chrome/74.0.3729.131 Safari/537.36"",""on_chrome"":true,""on_mobile"":false,""language"":""en-US"",""screen_resolution"":[1440,900],""platform"":""MacIntel"",""timezone"":""Europe/Berlin""}","13","2034.1799999967684","","","1558337413607","19","","Frankfurt","[]","Frankfurt","true","true","2659.780000001774"
"","html-voicekey-response","102","566424","0.0-4.98-0.98","ac9vf15jdlz5bd1","{""user_agent"":""Mozilla/5.0 (Macintosh; Intel Mac OS X 10_14_4) AppleWebKit/537.36 (KHTML, like Gecko) Chrome/74.0.3729.131 Safari/537.36"",""on_chrome"":true,""on_mobile"":false,""language"":""en-US"",""screen_resolution"":[1440,900],""platform"":""MacIntel"",""timezone"":""Europe/Berlin""}","13","3917.874999993574","","","1558337416873","18","","Forchheim","[]","Forchheim","true","false","4460.284999993746"
"","html-voicekey-response","103","568934","0.0-4.99-0.99","ac9vf15jdlz5bd1","{""user_agent"":""Mozilla/5.0 (Macintosh; Intel Mac OS X 10_14_4) AppleWebKit/537.36 (KHTML, like Gecko) Chrome/74.0.3729.131 Safari/537.36"",""on_chrome"":true,""on_mobile"":false,""language"":""en-US"",""screen_resolution"":[1440,900],""platform"":""MacIntel"",""timezone"":""Europe/Berlin""}","13","1295.8250000027242","","","1558337421941","19","","Frankfurt","[]","Frankfurt","true","false","1904.4600000052014"
"","html-voicekey-response","104","570968","0.0-4.100-0.100","ac9vf15jdlz5bd1","{""user_agent"":""Mozilla/5.0 (Macintosh; Intel Mac OS X 10_14_4) AppleWebKit/537.36 (KHTML, like Gecko) Chrome/74.0.3729.131 Safari/537.36"",""on_chrome"":true,""on_mobile"":false,""language"":""en-US"",""screen_resolution"":[1440,900],""platform"":""MacIntel"",""timezone"":""Europe/Berlin""}","13","785.2050000017974","","","1558337424452","20","","Hamburg ","[]","Hamburg ","true","true","1427.1399999997811"
"","html-voicekey-response","105","572934","0.0-4.101-0.101","ac9vf15jdlz5bd1","{""user_agent"":""Mozilla/5.0 (Macintosh; Intel Mac OS X 10_14_4) AppleWebKit/537.36 (KHTML, like Gecko) Chrome/74.0.3729.131 Safari/537.36"",""on_chrome"":true,""on_mobile"":false,""language"":""en-US"",""screen_resolution"":[1440,900],""platform"":""MacIntel"",""timezone"":""Europe/Berlin""}","13","783.8100000024773","","","1558337426486","21","","Konstanz","[]","Konstanz","true","true","1358.845000009751"
"","html-voicekey-response","106","575267","0.0-4.102-0.102","ac9vf15jdlz5bd1","{""user_agent"":""Mozilla/5.0 (Macintosh; Intel Mac OS X 10_14_4) AppleWebKit/537.36 (KHTML, like Gecko) Chrome/74.0.3729.131 Safari/537.36"",""on_chrome"":true,""on_mobile"":false,""language"":""en-US"",""screen_resolution"":[1440,900],""platform"":""MacIntel"",""timezone"":""Europe/Berlin""}","13","1167.9200000015321","","","1558337428451","20","","Hamburg ","[]","Hamburg ","true","false","1726.794999995036"
"","html-voicekey-response","107","580868","0.0-4.103-0.103","ac9vf15jdlz5bd1","{""user_agent"":""Mozilla/5.0 (Macintosh; Intel Mac OS X 10_14_4) AppleWebKit/537.36 (KHTML, like Gecko) Chrome/74.0.3729.131 Safari/537.36"",""on_chrome"":true,""on_mobile"":false,""language"":""en-US"",""screen_resolution"":[1440,900],""platform"":""MacIntel"",""timezone"":""Europe/Berlin""}","13","4400.869999992055","","","1558337430785","21","","Konstanz","[]","Konstanz","true","false","4993.559999988065"
"","html-voicekey-response","108","584675","0.0-4.104-0.104","ac9vf15jdlz5bd1","{""user_agent"":""Mozilla/5.0 (Macintosh; Intel Mac OS X 10_14_4) AppleWebKit/537.36 (KHTML, like Gecko) Chrome/74.0.3729.131 Safari/537.36"",""on_chrome"":true,""on_mobile"":false,""language"":""en-US"",""screen_resolution"":[1440,900],""platform"":""MacIntel"",""timezone"":""Europe/Berlin""}","13","2691.899999999651","","","1558337436385","13","","Chemnitz","[]","Chemnitz","true","false","3201.1100000090664"
"","html-voicekey-response","109","601574","0.0-4.105-0.105","ac9vf15jdlz5bd1","{""user_agent"":""Mozilla/5.0 (Macintosh; Intel Mac OS X 10_14_4) AppleWebKit/537.36 (KHTML, like Gecko) Chrome/74.0.3729.131 Safari/537.36"",""on_chrome"":true,""on_mobile"":false,""language"":""en-US"",""screen_resolution"":[1440,900],""platform"":""MacIntel"",""timezone"":""Europe/Berlin""}","13","11318.009999997075","","","1558337440193","15","","","[]","Nürnberg","false","false","12891.820000004373"
"","html-voicekey-response","110","606340","0.0-4.106-0.106","ac9vf15jdlz5bd1","{""user_agent"":""Mozilla/5.0 (Macintosh; Intel Mac OS X 10_14_4) AppleWebKit/537.36 (KHTML, like Gecko) Chrome/74.0.3729.131 Safari/537.36"",""on_chrome"":true,""on_mobile"":false,""language"":""en-US"",""screen_resolution"":[1440,900],""platform"":""MacIntel"",""timezone"":""Europe/Berlin""}","13","919.0299999989569","","","1558337457090","5","","Aachen","[]","Aachen","true","false","4160.729999988689"
"","html-voicekey-response","111","608698","0.0-4.107-0.107","ac9vf15jdlz5bd1","{""user_agent"":""Mozilla/5.0 (Macintosh; Intel Mac OS X 10_14_4) AppleWebKit/537.36 (KHTML, like Gecko) Chrome/74.0.3729.131 Safari/537.36"",""on_chrome"":true,""on_mobile"":false,""language"":""en-US"",""screen_resolution"":[1440,900],""platform"":""MacIntel"",""timezone"":""Europe/Berlin""}","13","1285.7250000032132","","","1558337461857","16","","Schwangau","[]","Schwangau","true","false","1751.2449999921955"
"","html-voicekey-response","112","610732","0.0-4.108-0.108","ac9vf15jdlz5bd1","{""user_agent"":""Mozilla/5.0 (Macintosh; Intel Mac OS X 10_14_4) AppleWebKit/537.36 (KHTML, like Gecko) Chrome/74.0.3729.131 Safari/537.36"",""on_chrome"":true,""on_mobile"":false,""language"":""en-US"",""screen_resolution"":[1440,900],""platform"":""MacIntel"",""timezone"":""Europe/Berlin""}","13","867.7750000004656","","","1558337464216","17","","Leipzig","[]","Leipzig","true","false","1426.8349999911152"
"","html-voicekey-response","113","613597","0.0-4.109-0.109","ac9vf15jdlz5bd1","{""user_agent"":""Mozilla/5.0 (Macintosh; Intel Mac OS X 10_14_4) AppleWebKit/537.36 (KHTML, like Gecko) Chrome/74.0.3729.131 Safari/537.36"",""on_chrome"":true,""on_mobile"":false,""language"":""en-US"",""screen_resolution"":[1440,900],""platform"":""MacIntel"",""timezone"":""Europe/Berlin""}","13","1834.6000000108966","","","1558337466249","8","","Gotha","[]","Gotha","true","false","2259.200000000419"
"","html-voicekey-response","114","617381","0.0-4.110-0.110","ac9vf15jdlz5bd1","{""user_agent"":""Mozilla/5.0 (Macintosh; Intel Mac OS X 10_14_4) AppleWebKit/537.36 (KHTML, like Gecko) Chrome/74.0.3729.131 Safari/537.36"",""on_chrome"":true,""on_mobile"":false,""language"":""en-US"",""screen_resolution"":[1440,900],""platform"":""MacIntel"",""timezone"":""Europe/Berlin""}","13","2635.480000006128","","","1558337469115","11","","Alfeld","[]","Alfeld","true","false","3177.4900000018533"
"","html-voicekey-response","115","619857","0.0-4.111-0.111","ac9vf15jdlz5bd1","{""user_agent"":""Mozilla/5.0 (Macintosh; Intel Mac OS X 10_14_4) AppleWebKit/537.36 (KHTML, like Gecko) Chrome/74.0.3729.131 Safari/537.36"",""on_chrome"":true,""on_mobile"":false,""language"":""en-US"",""screen_resolution"":[1440,900],""platform"":""MacIntel"",""timezone"":""Europe/Berlin""}","13","1261.4699999920326","","","1558337472899","7","","Erfurt","[]","Erfurt","true","false","1869.6249999920838"
"","html-voicekey-response","116","629624","0.0-4.112-0.112","ac9vf15jdlz5bd1","{""user_agent"":""Mozilla/5.0 (Macintosh; Intel Mac OS X 10_14_4) AppleWebKit/537.36 (KHTML, like Gecko) Chrome/74.0.3729.131 Safari/537.36"",""on_chrome"":true,""on_mobile"":false,""language"":""en-US"",""screen_resolution"":[1440,900],""platform"":""MacIntel"",""timezone"":""Europe/Berlin""}","13","5184.730000002519","","","1558337475375","18","","","[]","Forchheim","false","false","5759.829999995418"
"","html-voicekey-response","117","631650","0.0-4.113-0.113","ac9vf15jdlz5bd1","{""user_agent"":""Mozilla/5.0 (Macintosh; Intel Mac OS X 10_14_4) AppleWebKit/537.36 (KHTML, like Gecko) Chrome/74.0.3729.131 Safari/537.36"",""on_chrome"":true,""on_mobile"":false,""language"":""en-US"",""screen_resolution"":[1440,900],""platform"":""MacIntel"",""timezone"":""Europe/Berlin""}","13","1017.1999999964377","","","1558337485141","20","","Hamburg ","[]","Hamburg ","true","false","1419.6999999985565"
"","html-voicekey-response","118","637983","0.0-4.114-0.114","ac9vf15jdlz5bd1","{""user_agent"":""Mozilla/5.0 (Macintosh; Intel Mac OS X 10_14_4) AppleWebKit/537.36 (KHTML, like Gecko) Chrome/74.0.3729.131 Safari/537.36"",""on_chrome"":true,""on_mobile"":false,""language"":""en-US"",""screen_resolution"":[1440,900],""platform"":""MacIntel"",""timezone"":""Europe/Berlin""}","13","5251.899999997322","","","1558337487167","19","","Frankfurt","[]","Frankfurt","true","false","5727.020000005723"
"","html-voicekey-response","119","647067","0.0-4.115-0.115","ac9vf15jdlz5bd1","{""user_agent"":""Mozilla/5.0 (Macintosh; Intel Mac OS X 10_14_4) AppleWebKit/537.36 (KHTML, like Gecko) Chrome/74.0.3729.131 Safari/537.36"",""on_chrome"":true,""on_mobile"":false,""language"":""en-US"",""screen_resolution"":[1440,900],""platform"":""MacIntel"",""timezone"":""Europe/Berlin""}","13","3818.585000009835","","","1558337493501","21","","","[]","Konstanz","false","false","5076.920000006794"
"","html-voicekey-response","120","650879","0.0-4.116-0.116","ac9vf15jdlz5bd1","{""user_agent"":""Mozilla/5.0 (Macintosh; Intel Mac OS X 10_14_4) AppleWebKit/537.36 (KHTML, like Gecko) Chrome/74.0.3729.131 Safari/537.36"",""on_chrome"":true,""on_mobile"":false,""language"":""en-US"",""screen_resolution"":[1440,900],""platform"":""MacIntel"",""timezone"":""Europe/Berlin""}","13","2412.860000005667","","","1558337502585","15","","Nürnberg","[]","Nürnberg","true","false","3203.850000005332"
"","html-voicekey-response","121","653380","0.0-4.117-0.117","ac9vf15jdlz5bd1","{""user_agent"":""Mozilla/5.0 (Macintosh; Intel Mac OS X 10_14_4) AppleWebKit/537.36 (KHTML, like Gecko) Chrome/74.0.3729.131 Safari/537.36"",""on_chrome"":true,""on_mobile"":false,""language"":""en-US"",""screen_resolution"":[1440,900],""platform"":""MacIntel"",""timezone"":""Europe/Berlin""}","13","1384.7899999908173","","","1558337506397","3","","Ingolstadt","[]","Ingolstadt","true","false","1894.0349999902537"
"","html-voicekey-response","122","658170","0.0-4.118-0.118","ac9vf15jdlz5bd1","{""user_agent"":""Mozilla/5.0 (Macintosh; Intel Mac OS X 10_14_4) AppleWebKit/537.36 (KHTML, like Gecko) Chrome/74.0.3729.131 Safari/537.36"",""on_chrome"":true,""on_mobile"":false,""language"":""en-US"",""screen_resolution"":[1440,900],""platform"":""MacIntel"",""timezone"":""Europe/Berlin""}","13","3707.2299999943702","","","1558337508898","13","","Chemnitz","[]","Chemnitz","true","false","4182.795000000624"
"","html-voicekey-response","123","660536","0.0-4.119-0.119","ac9vf15jdlz5bd1","{""user_agent"":""Mozilla/5.0 (Macintosh; Intel Mac OS X 10_14_4) AppleWebKit/537.36 (KHTML, like Gecko) Chrome/74.0.3729.131 Safari/537.36"",""on_chrome"":true,""on_mobile"":false,""language"":""en-US"",""screen_resolution"":[1440,900],""platform"":""MacIntel"",""timezone"":""Europe/Berlin""}","13","1250.5849999959814","","","1558337513687","9","","München","[]","München","true","false","1758.7099999946076"
"","html-voicekey-response","124","663803","0.0-4.120-0.120","ac9vf15jdlz5bd1","{""user_agent"":""Mozilla/5.0 (Macintosh; Intel Mac OS X 10_14_4) AppleWebKit/537.36 (KHTML, like Gecko) Chrome/74.0.3729.131 Safari/537.36"",""on_chrome"":true,""on_mobile"":false,""language"":""en-US"",""screen_resolution"":[1440,900],""platform"":""MacIntel"",""timezone"":""Europe/Berlin""}","13","1816.9350000042236","","","1558337516054","12","","Dessau","[]","Dessau","true","false","2659.364999999525"
"","html-voicekey-response","125","669461","0.0-4.121-0.121","ac9vf15jdlz5bd1","{""user_agent"":""Mozilla/5.0 (Macintosh; Intel Mac OS X 10_14_4) AppleWebKit/537.36 (KHTML, like Gecko) Chrome/74.0.3729.131 Safari/537.36"",""on_chrome"":true,""on_mobile"":false,""language"":""en-US"",""screen_resolution"":[1440,900],""platform"":""MacIntel"",""timezone"":""Europe/Berlin""}","13","4474.985000002407","","","1558337519321","18","","Forchheim","[]","Forchheim","true","false","5050.6250000034925"
"","html-voicekey-response","126","677660","0.0-4.122-0.122","ac9vf15jdlz5bd1","{""user_agent"":""Mozilla/5.0 (Macintosh; Intel Mac OS X 10_14_4) AppleWebKit/537.36 (KHTML, like Gecko) Chrome/74.0.3729.131 Safari/537.36"",""on_chrome"":true,""on_mobile"":false,""language"":""en-US"",""screen_resolution"":[1440,900],""platform"":""MacIntel"",""timezone"":""Europe/Berlin""}","13","Infinity","","","1558337524979","8","","Gotha","[]","Gotha","true","false","7592.384999996284"
"","html-voicekey-response","127","683539","0.0-4.123-0.123","ac9vf15jdlz5bd1","{""user_agent"":""Mozilla/5.0 (Macintosh; Intel Mac OS X 10_14_4) AppleWebKit/537.36 (KHTML, like Gecko) Chrome/74.0.3729.131 Safari/537.36"",""on_chrome"":true,""on_mobile"":false,""language"":""en-US"",""screen_resolution"":[1440,900],""platform"":""MacIntel"",""timezone"":""Europe/Berlin""}","13","4597.524999999068","","","1558337533178","4","","Würzburg","[]","Würzburg","true","false","5271.819999994477"
"","html-voicekey-response","128","689456","0.0-4.124-0.124","ac9vf15jdlz5bd1","{""user_agent"":""Mozilla/5.0 (Macintosh; Intel Mac OS X 10_14_4) AppleWebKit/537.36 (KHTML, like Gecko) Chrome/74.0.3729.131 Safari/537.36"",""on_chrome"":true,""on_mobile"":false,""language"":""en-US"",""screen_resolution"":[1440,900],""platform"":""MacIntel"",""timezone"":""Europe/Berlin""}","13","2769.0499999969966","","","1558337539057","19","","Frankfurt","[]","Frankfurt","true","false","5310.169999997015"
"","html-voicekey-response","129","698532","0.0-4.125-0.125","ac9vf15jdlz5bd1","{""user_agent"":""Mozilla/5.0 (Macintosh; Intel Mac OS X 10_14_4) AppleWebKit/537.36 (KHTML, like Gecko) Chrome/74.0.3729.131 Safari/537.36"",""on_chrome"":true,""on_mobile"":false,""language"":""en-US"",""screen_resolution"":[1440,900],""platform"":""MacIntel"",""timezone"":""Europe/Berlin""}","13","4508.070000005164","","","1558337544975","21","","","[]","Konstanz","false","false","5067.989999995916"
"","html-voicekey-response","130","701214","0.0-4.126-0.126","ac9vf15jdlz5bd1","{""user_agent"":""Mozilla/5.0 (Macintosh; Intel Mac OS X 10_14_4) AppleWebKit/537.36 (KHTML, like Gecko) Chrome/74.0.3729.131 Safari/537.36"",""on_chrome"":true,""on_mobile"":false,""language"":""en-US"",""screen_resolution"":[1440,900],""platform"":""MacIntel"",""timezone"":""Europe/Berlin""}","13","216.14499999289401","","","1558337554050","5","","Aachen","[]","Aachen","true","false","2075.284999998985"
"","html-voicekey-response","131","703993","0.0-4.127-0.127","ac9vf15jdlz5bd1","{""user_agent"":""Mozilla/5.0 (Macintosh; Intel Mac OS X 10_14_4) AppleWebKit/537.36 (KHTML, like Gecko) Chrome/74.0.3729.131 Safari/537.36"",""on_chrome"":true,""on_mobile"":false,""language"":""en-US"",""screen_resolution"":[1440,900],""platform"":""MacIntel"",""timezone"":""Europe/Berlin""}","13","1678.7200000051876","","","1558337556733","11","","Alfeld","[]","Alfeld","true","false","2171.155000003637"
"","html-voicekey-response","132","711978","0.0-4.128-0.128","ac9vf15jdlz5bd1","{""user_agent"":""Mozilla/5.0 (Macintosh; Intel Mac OS X 10_14_4) AppleWebKit/537.36 (KHTML, like Gecko) Chrome/74.0.3729.131 Safari/537.36"",""on_chrome"":true,""on_mobile"":false,""language"":""en-US"",""screen_resolution"":[1440,900],""platform"":""MacIntel"",""timezone"":""Europe/Berlin""}","13","6966.840000002621","","","1558337559511","18","","Forchheim","[]","Forchheim","true","false","7376.205000007758"
"","html-voicekey-response","133","714701","0.0-4.129-0.129","ac9vf15jdlz5bd1","{""user_agent"":""Mozilla/5.0 (Macintosh; Intel Mac OS X 10_14_4) AppleWebKit/537.36 (KHTML, like Gecko) Chrome/74.0.3729.131 Safari/537.36"",""on_chrome"":true,""on_mobile"":false,""language"":""en-US"",""screen_resolution"":[1440,900],""platform"":""MacIntel"",""timezone"":""Europe/Berlin""}","13","1607.029999993602","","","1558337567497","10","","Heidelberg","[]","Heidelberg","true","false","2115.170000004582"
"","html-voicekey-response","134","718802","0.0-4.130-0.130","ac9vf15jdlz5bd1","{""user_agent"":""Mozilla/5.0 (Macintosh; Intel Mac OS X 10_14_4) AppleWebKit/537.36 (KHTML, like Gecko) Chrome/74.0.3729.131 Safari/537.36"",""on_chrome"":true,""on_mobile"":false,""language"":""en-US"",""screen_resolution"":[1440,900],""platform"":""MacIntel"",""timezone"":""Europe/Berlin""}","13","3033.160000000708","","","1558337570219","21","","Konstanz","[]","Konstanz","true","false","3493.224999998347"
"","html-voicekey-response","135","725803","0.0-4.131-0.131","ac9vf15jdlz5bd1","{""user_agent"":""Mozilla/5.0 (Macintosh; Intel Mac OS X 10_14_4) AppleWebKit/537.36 (KHTML, like Gecko) Chrome/74.0.3729.131 Safari/537.36"",""on_chrome"":true,""on_mobile"":false,""language"":""en-US"",""screen_resolution"":[1440,900],""platform"":""MacIntel"",""timezone"":""Europe/Berlin""}","13","5900.285000005015","","","1558337574320","13","","Chemnitz","[]","Chemnitz","true","false","6391.904999996768"
"","html-voicekey-response","136","729792","0.0-4.132-0.132","ac9vf15jdlz5bd1","{""user_agent"":""Mozilla/5.0 (Macintosh; Intel Mac OS X 10_14_4) AppleWebKit/537.36 (KHTML, like Gecko) Chrome/74.0.3729.131 Safari/537.36"",""on_chrome"":true,""on_mobile"":false,""language"":""en-US"",""screen_resolution"":[1440,900],""platform"":""MacIntel"",""timezone"":""Europe/Berlin""}","13","2822.884999995795","","","1558337581321","18","","Forchheim","[]","Forchheim","true","false","3381.5400000021327"
"","html-voicekey-response","137","732742","0.0-4.133-0.133","ac9vf15jdlz5bd1","{""user_agent"":""Mozilla/5.0 (Macintosh; Intel Mac OS X 10_14_4) AppleWebKit/537.36 (KHTML, like Gecko) Chrome/74.0.3729.131 Safari/537.36"",""on_chrome"":true,""on_mobile"":false,""language"":""en-US"",""screen_resolution"":[1440,900],""platform"":""MacIntel"",""timezone"":""Europe/Berlin""}","13","1484.1049999902957","","","1558337585310","8","","Gotha","[]","Gotha","true","false","2342.5900000002002"
"","html-voicekey-response","138","734725","0.0-4.134-0.134","ac9vf15jdlz5bd1","{""user_agent"":""Mozilla/5.0 (Macintosh; Intel Mac OS X 10_14_4) AppleWebKit/537.36 (KHTML, like Gecko) Chrome/74.0.3729.131 Safari/537.36"",""on_chrome"":true,""on_mobile"":false,""language"":""en-US"",""screen_resolution"":[1440,900],""platform"":""MacIntel"",""timezone"":""Europe/Berlin""}","13","882.1499999993015","","","1558337588262","7","","Erfurt","[]","Erfurt","true","false","1374.0249999973457"
"","html-voicekey-response","139","737303","0.0-4.135-0.135","ac9vf15jdlz5bd1","{""user_agent"":""Mozilla/5.0 (Macintosh; Intel Mac OS X 10_14_4) AppleWebKit/537.36 (KHTML, like Gecko) Chrome/74.0.3729.131 Safari/537.36"",""on_chrome"":true,""on_mobile"":false,""language"":""en-US"",""screen_resolution"":[1440,900],""platform"":""MacIntel"",""timezone"":""Europe/Berlin""}","13","1566.3000000002562","","","1558337590245","19","","Frankfurt","[]","Frankfurt","true","false","1969.2350000113947"
"","html-voicekey-response","140","739953","0.0-4.136-0.136","ac9vf15jdlz5bd1","{""user_agent"":""Mozilla/5.0 (Macintosh; Intel Mac OS X 10_14_4) AppleWebKit/537.36 (KHTML, like Gecko) Chrome/74.0.3729.131 Safari/537.36"",""on_chrome"":true,""on_mobile"":false,""language"":""en-US"",""screen_resolution"":[1440,900],""platform"":""MacIntel"",""timezone"":""Europe/Berlin""}","13","1482.4849999948406","","","1558337592822","21","","Konstanz","[]","Konstanz","true","false","2042.3549999977695"
"","html-voicekey-response","141","745136","0.0-4.137-0.137","ac9vf15jdlz5bd1","{""user_agent"":""Mozilla/5.0 (Macintosh; Intel Mac OS X 10_14_4) AppleWebKit/537.36 (KHTML, like Gecko) Chrome/74.0.3729.131 Safari/537.36"",""on_chrome"":true,""on_mobile"":false,""language"":""en-US"",""screen_resolution"":[1440,900],""platform"":""MacIntel"",""timezone"":""Europe/Berlin""}","13","4149.655000010016","","","1558337595472","13","","Chemnitz","[]","Chemnitz","true","false","4575.030000007246"
"","html-voicekey-response","142","748104","0.0-4.138-0.138","ac9vf15jdlz5bd1","{""user_agent"":""Mozilla/5.0 (Macintosh; Intel Mac OS X 10_14_4) AppleWebKit/537.36 (KHTML, like Gecko) Chrome/74.0.3729.131 Safari/537.36"",""on_chrome"":true,""on_mobile"":false,""language"":""en-US"",""screen_resolution"":[1440,900],""platform"":""MacIntel"",""timezone"":""Europe/Berlin""}","13","1567.6899999906077","","","1558337600655","22","","Bamberg","[]","Bamberg","true","true","2358.9300000021467"
"","html-voicekey-response","143","752028","0.0-4.139-0.139","ac9vf15jdlz5bd1","{""user_agent"":""Mozilla/5.0 (Macintosh; Intel Mac OS X 10_14_4) AppleWebKit/537.36 (KHTML, like Gecko) Chrome/74.0.3729.131 Safari/537.36"",""on_chrome"":true,""on_mobile"":false,""language"":""en-US"",""screen_resolution"":[1440,900],""platform"":""MacIntel"",""timezone"":""Europe/Berlin""}","13","2855.900000003958","","","1558337603624","18","","Forchheim","[]","Forchheim","true","false","3315.070000011474"
"","html-voicekey-response","144","753961","0.0-4.140-0.140","ac9vf15jdlz5bd1","{""user_agent"":""Mozilla/5.0 (Macintosh; Intel Mac OS X 10_14_4) AppleWebKit/537.36 (KHTML, like Gecko) Chrome/74.0.3729.131 Safari/537.36"",""on_chrome"":true,""on_mobile"":false,""language"":""en-US"",""screen_resolution"":[1440,900],""platform"":""MacIntel"",""timezone"":""Europe/Berlin""}","13","931.5450000084005","","","1558337607548","22","","Bamberg","[]","Bamberg","true","false","1323.3100000070408"
"","html-voicekey-response","145","757810","0.0-4.141-0.141","ac9vf15jdlz5bd1","{""user_agent"":""Mozilla/5.0 (Macintosh; Intel Mac OS X 10_14_4) AppleWebKit/537.36 (KHTML, like Gecko) Chrome/74.0.3729.131 Safari/537.36"",""on_chrome"":true,""on_mobile"":false,""language"":""en-US"",""screen_resolution"":[1440,900],""platform"":""MacIntel"",""timezone"":""Europe/Berlin""}","13","100","","","1558337609481","23","","Stuttgart","[]","Stuttgart","true","true","3240.829999995185"
"","html-voicekey-response","146","759735","0.0-4.142-0.142","ac9vf15jdlz5bd1","{""user_agent"":""Mozilla/5.0 (Macintosh; Intel Mac OS X 10_14_4) AppleWebKit/537.36 (KHTML, like Gecko) Chrome/74.0.3729.131 Safari/537.36"",""on_chrome"":true,""on_mobile"":false,""language"":""en-US"",""screen_resolution"":[1440,900],""platform"":""MacIntel"",""timezone"":""Europe/Berlin""}","13","876.0050000071991","","","1558337613329","24","","Köln","[]","Köln","true","true","1317.0200000022305"
"","html-voicekey-response","147","765219","0.0-4.143-0.143","ac9vf15jdlz5bd1","{""user_agent"":""Mozilla/5.0 (Macintosh; Intel Mac OS X 10_14_4) AppleWebKit/537.36 (KHTML, like Gecko) Chrome/74.0.3729.131 Safari/537.36"",""on_chrome"":true,""on_mobile"":false,""language"":""en-US"",""screen_resolution"":[1440,900],""platform"":""MacIntel"",""timezone"":""Europe/Berlin""}","13","1649.5299999895274","","","1558337615255","23","","Stuttgart","[]","Stuttgart","true","false","4875.314999997499"
"","html-voicekey-response","148","767318","0.0-4.144-0.144","ac9vf15jdlz5bd1","{""user_agent"":""Mozilla/5.0 (Macintosh; Intel Mac OS X 10_14_4) AppleWebKit/537.36 (KHTML, like Gecko) Chrome/74.0.3729.131 Safari/537.36"",""on_chrome"":true,""on_mobile"":false,""language"":""en-US"",""screen_resolution"":[1440,900],""platform"":""MacIntel"",""timezone"":""Europe/Berlin""}","13","965.8200000065611","","","1558337620738","24","","Köln","[]","Köln","true","false","1491.1100000026636"
"","html-voicekey-response","149","770942","0.0-4.145-0.145","ac9vf15jdlz5bd1","{""user_agent"":""Mozilla/5.0 (Macintosh; Intel Mac OS X 10_14_4) AppleWebKit/537.36 (KHTML, like Gecko) Chrome/74.0.3729.131 Safari/537.36"",""on_chrome"":true,""on_mobile"":false,""language"":""en-US"",""screen_resolution"":[1440,900],""platform"":""MacIntel"",""timezone"":""Europe/Berlin""}","13","2499.929999999795","","","1558337622837","13","","Chemnitz","[]","Chemnitz","true","false","3016.6599999938626"
"","html-voicekey-response","150","783961","0.0-4.146-0.146","ac9vf15jdlz5bd1","{""user_agent"":""Mozilla/5.0 (Macintosh; Intel Mac OS X 10_14_4) AppleWebKit/537.36 (KHTML, like Gecko) Chrome/74.0.3729.131 Safari/537.36"",""on_chrome"":true,""on_mobile"":false,""language"":""en-US"",""screen_resolution"":[1440,900],""platform"":""MacIntel"",""timezone"":""Europe/Berlin""}","13","Infinity","","","1558337626461","15","","Nürnberg","[]","Nürnberg","true","false","12408.775000003516"
"","html-voicekey-response","151","798801","0.0-4.147-0.147","ac9vf15jdlz5bd1","{""user_agent"":""Mozilla/5.0 (Macintosh; Intel Mac OS X 10_14_4) AppleWebKit/537.36 (KHTML, like Gecko) Chrome/74.0.3729.131 Safari/537.36"",""on_chrome"":true,""on_mobile"":false,""language"":""en-US"",""screen_resolution"":[1440,900],""platform"":""MacIntel"",""timezone"":""Europe/Berlin""}","13","13621.445000005979","","","1558337639481","21","","Konstanz","[]","Konstanz","true","false","14230.455000011716"
"","html-voicekey-response","152","802531","0.0-4.148-0.148","ac9vf15jdlz5bd1","{""user_agent"":""Mozilla/5.0 (Macintosh; Intel Mac OS X 10_14_4) AppleWebKit/537.36 (KHTML, like Gecko) Chrome/74.0.3729.131 Safari/537.36"",""on_chrome"":true,""on_mobile"":false,""language"":""en-US"",""screen_resolution"":[1440,900],""platform"":""MacIntel"",""timezone"":""Europe/Berlin""}","13","2630.059999990254","","","1558337654320","18","","Forchheim","[]","Forchheim","true","false","3122.154999990016"
"","html-voicekey-response","153","805481","0.0-4.149-0.149","ac9vf15jdlz5bd1","{""user_agent"":""Mozilla/5.0 (Macintosh; Intel Mac OS X 10_14_4) AppleWebKit/537.36 (KHTML, like Gecko) Chrome/74.0.3729.131 Safari/537.36"",""on_chrome"":true,""on_mobile"":false,""language"":""en-US"",""screen_resolution"":[1440,900],""platform"":""MacIntel"",""timezone"":""Europe/Berlin""}","13","1816.849999997276","","","1558337658050","4","","Würzburg","[]","Würzburg","true","false","2342.5099999876693"
"","html-voicekey-response","154","807930","0.0-4.150-0.150","ac9vf15jdlz5bd1","{""user_agent"":""Mozilla/5.0 (Macintosh; Intel Mac OS X 10_14_4) AppleWebKit/537.36 (KHTML, like Gecko) Chrome/74.0.3729.131 Safari/537.36"",""on_chrome"":true,""on_mobile"":false,""language"":""en-US"",""screen_resolution"":[1440,900],""platform"":""MacIntel"",""timezone"":""Europe/Berlin""}","13","1414.9750000013505","","","1558337661001","13","","Chemnitz","[]","Chemnitz","true","false","1840.3499999985797"
"","html-voicekey-response","155","821289","0.0-4.151-0.151","ac9vf15jdlz5bd1","{""user_agent"":""Mozilla/5.0 (Macintosh; Intel Mac OS X 10_14_4) AppleWebKit/537.36 (KHTML, like Gecko) Chrome/74.0.3729.131 Safari/537.36"",""on_chrome"":true,""on_mobile"":false,""language"":""en-US"",""screen_resolution"":[1440,900],""platform"":""MacIntel"",""timezone"":""Europe/Berlin""}","13","4898.494999995664","","","1558337663451","22","","","[]","Bamberg","false","false","9348.939999996219"
