"value","trial_type","trial_index","time_elapsed","internal_node_id","subject","browser_info","participant_number","rt","responses","view_history","presentation_start_time","id","text","response","keypresses","answer","correct","study","experimenter_rt"
"","call-function","0","4","0.0-0.0","1jtlba5vup147vw","{""user_agent"":""Mozilla/5.0 (Macintosh; Intel Mac OS X 10_14_4) AppleWebKit/537.36 (KHTML, like Gecko) Chrome/74.0.3729.131 Safari/537.36"",""on_chrome"":true,""on_mobile"":false,""language"":""en-US"",""screen_resolution"":[1440,900],""platform"":""MacIntel"",""timezone"":""Europe/Berlin""}","14","","","","","","","","","","","",""
"","survey-text","1","7413","0.0-1.0","1jtlba5vup147vw","{""user_agent"":""Mozilla/5.0 (Macintosh; Intel Mac OS X 10_14_4) AppleWebKit/537.36 (KHTML, like Gecko) Chrome/74.0.3729.131 Safari/537.36"",""on_chrome"":true,""on_mobile"":false,""language"":""en-US"",""screen_resolution"":[1440,900],""platform"":""MacIntel"",""timezone"":""Europe/Berlin""}","14","7407","{""Q0"":""14""}","","","","","","","","","",""
"","instructions","2","93012","0.0-2.0","1jtlba5vup147vw","{""user_agent"":""Mozilla/5.0 (Macintosh; Intel Mac OS X 10_14_4) AppleWebKit/537.36 (KHTML, like Gecko) Chrome/74.0.3729.131 Safari/537.36"",""on_chrome"":true,""on_mobile"":false,""language"":""en-US"",""screen_resolution"":[1440,900],""platform"":""MacIntel"",""timezone"":""Europe/Berlin""}","14","85597","","[{""page_index"":0,""viewing_time"":85596}]","","","","","","","","",""
"","call-function","3","93012","0.0-3.0","1jtlba5vup147vw","{""user_agent"":""Mozilla/5.0 (Macintosh; Intel Mac OS X 10_14_4) AppleWebKit/537.36 (KHTML, like Gecko) Chrome/74.0.3729.131 Safari/537.36"",""on_chrome"":true,""on_mobile"":false,""language"":""en-US"",""screen_resolution"":[1440,900],""platform"":""MacIntel"",""timezone"":""Europe/Berlin""}","14","","","","","","","","","","","",""
"","html-voicekey-response","4","98310","0.0-4.0-0.0","1jtlba5vup147vw","{""user_agent"":""Mozilla/5.0 (Macintosh; Intel Mac OS X 10_14_4) AppleWebKit/537.36 (KHTML, like Gecko) Chrome/74.0.3729.131 Safari/537.36"",""on_chrome"":true,""on_mobile"":false,""language"":""en-US"",""screen_resolution"":[1440,900],""platform"":""MacIntel"",""timezone"":""Europe/Berlin""}","14","4091.259999995446","","","1558338697101","1","","Magdeburg","[]","Magdeburg","true","true","4692.399999999907"
"","html-voicekey-response","5","103025","0.0-4.1-0.1","1jtlba5vup147vw","{""user_agent"":""Mozilla/5.0 (Macintosh; Intel Mac OS X 10_14_4) AppleWebKit/537.36 (KHTML, like Gecko) Chrome/74.0.3729.131 Safari/537.36"",""on_chrome"":true,""on_mobile"":false,""language"":""en-US"",""screen_resolution"":[1440,900],""platform"":""MacIntel"",""timezone"":""Europe/Berlin""}","14","3535.6750000008383","","","1558338702399","1","","Magdeburg","[]","Magdeburg","true","false","4110.710000008112"
"","html-voicekey-response","6","105116","0.0-4.2-0.2","1jtlba5vup147vw","{""user_agent"":""Mozilla/5.0 (Macintosh; Intel Mac OS X 10_14_4) AppleWebKit/537.36 (KHTML, like Gecko) Chrome/74.0.3729.131 Safari/537.36"",""on_chrome"":true,""on_mobile"":false,""language"":""en-US"",""screen_resolution"":[1440,900],""platform"":""MacIntel"",""timezone"":""Europe/Berlin""}","14","922.0349999903468","","","1558338707112","2","","Berlin","[]","Berlin","true","true","1489.079999999376"
"","html-voicekey-response","7","108733","0.0-4.3-0.3","1jtlba5vup147vw","{""user_agent"":""Mozilla/5.0 (Macintosh; Intel Mac OS X 10_14_4) AppleWebKit/537.36 (KHTML, like Gecko) Chrome/74.0.3729.131 Safari/537.36"",""on_chrome"":true,""on_mobile"":false,""language"":""en-US"",""screen_resolution"":[1440,900],""platform"":""MacIntel"",""timezone"":""Europe/Berlin""}","14","2439.5099999909057","","","1558338709204","2","","Berlin","[]","Berlin","true","false","3014.4949999958044"
"","html-voicekey-response","8","111999","0.0-4.4-0.4","1jtlba5vup147vw","{""user_agent"":""Mozilla/5.0 (Macintosh; Intel Mac OS X 10_14_4) AppleWebKit/537.36 (KHTML, like Gecko) Chrome/74.0.3729.131 Safari/537.36"",""on_chrome"":true,""on_mobile"":false,""language"":""en-US"",""screen_resolution"":[1440,900],""platform"":""MacIntel"",""timezone"":""Europe/Berlin""}","14","1938.4799999914599","","","1558338712820","3","","Ingolstadt","[]","Ingolstadt","true","true","2664.229999994859"
"","html-voicekey-response","9","114602","0.0-4.5-0.5","1jtlba5vup147vw","{""user_agent"":""Mozilla/5.0 (Macintosh; Intel Mac OS X 10_14_4) AppleWebKit/537.36 (KHTML, like Gecko) Chrome/74.0.3729.131 Safari/537.36"",""on_chrome"":true,""on_mobile"":false,""language"":""en-US"",""screen_resolution"":[1440,900],""platform"":""MacIntel"",""timezone"":""Europe/Berlin""}","14","1307.2199999968057","","","1558338716086","4","","Würzburg","[]","Würzburg","true","true","1999.0899999975227"
"","html-voicekey-response","10","119058","0.0-4.6-0.6","1jtlba5vup147vw","{""user_agent"":""Mozilla/5.0 (Macintosh; Intel Mac OS X 10_14_4) AppleWebKit/537.36 (KHTML, like Gecko) Chrome/74.0.3729.131 Safari/537.36"",""on_chrome"":true,""on_mobile"":false,""language"":""en-US"",""screen_resolution"":[1440,900],""platform"":""MacIntel"",""timezone"":""Europe/Berlin""}","14","3277.920000002114","","","1558338718689","3","","Ingolstadt","[]","Ingolstadt","true","false","3854.5149999990826"
"","html-voicekey-response","11","121526","0.0-4.7-0.7","1jtlba5vup147vw","{""user_agent"":""Mozilla/5.0 (Macintosh; Intel Mac OS X 10_14_4) AppleWebKit/537.36 (KHTML, like Gecko) Chrome/74.0.3729.131 Safari/537.36"",""on_chrome"":true,""on_mobile"":false,""language"":""en-US"",""screen_resolution"":[1440,900],""platform"":""MacIntel"",""timezone"":""Europe/Berlin""}","14","1173.300000003865","","","1558338723145","4","","Würzburg","[]","Würzburg","true","false","1865.3900000063004"
"","html-voicekey-response","12","123974","0.0-4.8-0.8","1jtlba5vup147vw","{""user_agent"":""Mozilla/5.0 (Macintosh; Intel Mac OS X 10_14_4) AppleWebKit/537.36 (KHTML, like Gecko) Chrome/74.0.3729.131 Safari/537.36"",""on_chrome"":true,""on_mobile"":false,""language"":""en-US"",""screen_resolution"":[1440,900],""platform"":""MacIntel"",""timezone"":""Europe/Berlin""}","14","1321.779999992787","","","1558338725613","5","","Aachen","[]","Aachen","true","true","1846.3800000026822"
"","html-voicekey-response","13","126787","0.0-4.9-0.9","1jtlba5vup147vw","{""user_agent"":""Mozilla/5.0 (Macintosh; Intel Mac OS X 10_14_4) AppleWebKit/537.36 (KHTML, like Gecko) Chrome/74.0.3729.131 Safari/537.36"",""on_chrome"":true,""on_mobile"":false,""language"":""en-US"",""screen_resolution"":[1440,900],""platform"":""MacIntel"",""timezone"":""Europe/Berlin""}","14","1622.6600000025705","","","1558338728061","6","","Dresden","[]","Dresden","true","true","2211.1900000018068"
"","html-voicekey-response","14","129571","0.0-4.10-0.10","1jtlba5vup147vw","{""user_agent"":""Mozilla/5.0 (Macintosh; Intel Mac OS X 10_14_4) AppleWebKit/537.36 (KHTML, like Gecko) Chrome/74.0.3729.131 Safari/537.36"",""on_chrome"":true,""on_mobile"":false,""language"":""en-US"",""screen_resolution"":[1440,900],""platform"":""MacIntel"",""timezone"":""Europe/Berlin""}","14","1406.0249999982539","","","1558338730874","5","","Aachen","[]","Aachen","true","false","2181.7399999999907"
"","html-voicekey-response","15","131588","0.0-4.11-0.11","1jtlba5vup147vw","{""user_agent"":""Mozilla/5.0 (Macintosh; Intel Mac OS X 10_14_4) AppleWebKit/537.36 (KHTML, like Gecko) Chrome/74.0.3729.131 Safari/537.36"",""on_chrome"":true,""on_mobile"":false,""language"":""en-US"",""screen_resolution"":[1440,900],""platform"":""MacIntel"",""timezone"":""Europe/Berlin""}","14","956.2050000038929","","","1558338733658","6","","Dresden","[]","Dresden","true","false","1414.8600000044098"
"","html-voicekey-response","16","134587","0.0-4.12-0.12","1jtlba5vup147vw","{""user_agent"":""Mozilla/5.0 (Macintosh; Intel Mac OS X 10_14_4) AppleWebKit/537.36 (KHTML, like Gecko) Chrome/74.0.3729.131 Safari/537.36"",""on_chrome"":true,""on_mobile"":false,""language"":""en-US"",""screen_resolution"":[1440,900],""platform"":""MacIntel"",""timezone"":""Europe/Berlin""}","14","1905.6400000061608","","","1558338735675","7","","Erfurt","[]","Erfurt","true","true","2397.0400000107475"
"","html-voicekey-response","17","137230","0.0-4.13-0.13","1jtlba5vup147vw","{""user_agent"":""Mozilla/5.0 (Macintosh; Intel Mac OS X 10_14_4) AppleWebKit/537.36 (KHTML, like Gecko) Chrome/74.0.3729.131 Safari/537.36"",""on_chrome"":true,""on_mobile"":false,""language"":""en-US"",""screen_resolution"":[1440,900],""platform"":""MacIntel"",""timezone"":""Europe/Berlin""}","14","1422.514999992773","","","1558338738674","8","","Gotha","[]","Gotha","true","true","2040.1649999985239"
"","html-voicekey-response","18","139479","0.0-4.14-0.14","1jtlba5vup147vw","{""user_agent"":""Mozilla/5.0 (Macintosh; Intel Mac OS X 10_14_4) AppleWebKit/537.36 (KHTML, like Gecko) Chrome/74.0.3729.131 Safari/537.36"",""on_chrome"":true,""on_mobile"":false,""language"":""en-US"",""screen_resolution"":[1440,900],""platform"":""MacIntel"",""timezone"":""Europe/Berlin""}","14","1054.4250000037487","","","1558338741318","7","","Erfurt","[]","Erfurt","true","false","1646.420000004582"
"","html-voicekey-response","19","141662","0.0-4.15-0.15","1jtlba5vup147vw","{""user_agent"":""Mozilla/5.0 (Macintosh; Intel Mac OS X 10_14_4) AppleWebKit/537.36 (KHTML, like Gecko) Chrome/74.0.3729.131 Safari/537.36"",""on_chrome"":true,""on_mobile"":false,""language"":""en-US"",""screen_resolution"":[1440,900],""platform"":""MacIntel"",""timezone"":""Europe/Berlin""}","14","1056.0550000025892","","","1558338743566","8","","Gotha","[]","Gotha","true","false","1581.2500000029104"
"","html-voicekey-response","20","143729","0.0-4.16-0.16","1jtlba5vup147vw","{""user_agent"":""Mozilla/5.0 (Macintosh; Intel Mac OS X 10_14_4) AppleWebKit/537.36 (KHTML, like Gecko) Chrome/74.0.3729.131 Safari/537.36"",""on_chrome"":true,""on_mobile"":false,""language"":""en-US"",""screen_resolution"":[1440,900],""platform"":""MacIntel"",""timezone"":""Europe/Berlin""}","14","772.4249999972293","","","1558338745750","2","","Berlin","[]","Berlin","true","false","1464.5649999874877"
"","html-voicekey-response","21","145904","0.0-4.17-0.17","1jtlba5vup147vw","{""user_agent"":""Mozilla/5.0 (Macintosh; Intel Mac OS X 10_14_4) AppleWebKit/537.36 (KHTML, like Gecko) Chrome/74.0.3729.131 Safari/537.36"",""on_chrome"":true,""on_mobile"":false,""language"":""en-US"",""screen_resolution"":[1440,900],""platform"":""MacIntel"",""timezone"":""Europe/Berlin""}","14","1004.6300000047544","","","1558338747817","1","","Magdeburg","[]","Magdeburg","true","false","1572.1150000026682"
"","html-voicekey-response","22","149453","0.0-4.18-0.18","1jtlba5vup147vw","{""user_agent"":""Mozilla/5.0 (Macintosh; Intel Mac OS X 10_14_4) AppleWebKit/537.36 (KHTML, like Gecko) Chrome/74.0.3729.131 Safari/537.36"",""on_chrome"":true,""on_mobile"":false,""language"":""en-US"",""screen_resolution"":[1440,900],""platform"":""MacIntel"",""timezone"":""Europe/Berlin""}","14","2421.309999999567","","","1558338749992","9","","München","[]","München","true","true","2946.7599999916274"
"","html-voicekey-response","23","152187","0.0-4.19-0.19","1jtlba5vup147vw","{""user_agent"":""Mozilla/5.0 (Macintosh; Intel Mac OS X 10_14_4) AppleWebKit/537.36 (KHTML, like Gecko) Chrome/74.0.3729.131 Safari/537.36"",""on_chrome"":true,""on_mobile"":false,""language"":""en-US"",""screen_resolution"":[1440,900],""platform"":""MacIntel"",""timezone"":""Europe/Berlin""}","14","1338.930000007013","","","1558338753541","10","","Heidelberg","[]","Heidelberg","true","true","2130.3049999987707"
"","html-voicekey-response","24","157071","0.0-4.20-0.20","1jtlba5vup147vw","{""user_agent"":""Mozilla/5.0 (Macintosh; Intel Mac OS X 10_14_4) AppleWebKit/537.36 (KHTML, like Gecko) Chrome/74.0.3729.131 Safari/537.36"",""on_chrome"":true,""on_mobile"":false,""language"":""en-US"",""screen_resolution"":[1440,900],""platform"":""MacIntel"",""timezone"":""Europe/Berlin""}","14","3188.859999989136","","","1558338756274","9","","München","[]","München","true","false","4280.494999999064"
"","html-voicekey-response","25","159229","0.0-4.21-0.21","1jtlba5vup147vw","{""user_agent"":""Mozilla/5.0 (Macintosh; Intel Mac OS X 10_14_4) AppleWebKit/537.36 (KHTML, like Gecko) Chrome/74.0.3729.131 Safari/537.36"",""on_chrome"":true,""on_mobile"":false,""language"":""en-US"",""screen_resolution"":[1440,900],""platform"":""MacIntel"",""timezone"":""Europe/Berlin""}","14","795.9599999974947","","","1558338761159","10","","Heidelberg","[]","Heidelberg","true","false","1554.7249999945052"
"","html-voicekey-response","26","162229","0.0-4.22-0.22","1jtlba5vup147vw","{""user_agent"":""Mozilla/5.0 (Macintosh; Intel Mac OS X 10_14_4) AppleWebKit/537.36 (KHTML, like Gecko) Chrome/74.0.3729.131 Safari/537.36"",""on_chrome"":true,""on_mobile"":false,""language"":""en-US"",""screen_resolution"":[1440,900],""platform"":""MacIntel"",""timezone"":""Europe/Berlin""}","14","1820.285000003269","","","1558338763317","3","","Ingolstadt","[]","Ingolstadt","true","false","2396.485000004759"
"","html-voicekey-response","27","165246","0.0-4.23-0.23","1jtlba5vup147vw","{""user_agent"":""Mozilla/5.0 (Macintosh; Intel Mac OS X 10_14_4) AppleWebKit/537.36 (KHTML, like Gecko) Chrome/74.0.3729.131 Safari/537.36"",""on_chrome"":true,""on_mobile"":false,""language"":""en-US"",""screen_resolution"":[1440,900],""platform"":""MacIntel"",""timezone"":""Europe/Berlin""}","14","1587.94999999539","","","1558338766318","11","","Alfeld","[]","Alfeld","true","true","2413.104999999632"
"","html-voicekey-response","28","168098","0.0-4.24-0.24","1jtlba5vup147vw","{""user_agent"":""Mozilla/5.0 (Macintosh; Intel Mac OS X 10_14_4) AppleWebKit/537.36 (KHTML, like Gecko) Chrome/74.0.3729.131 Safari/537.36"",""on_chrome"":true,""on_mobile"":false,""language"":""en-US"",""screen_resolution"":[1440,900],""platform"":""MacIntel"",""timezone"":""Europe/Berlin""}","14","1537.624999991595","","","1558338769334","4","","Würzburg","[]","Würzburg","true","false","2246.594999989611"
"","html-voicekey-response","29","170753","0.0-4.25-0.25","1jtlba5vup147vw","{""user_agent"":""Mozilla/5.0 (Macintosh; Intel Mac OS X 10_14_4) AppleWebKit/537.36 (KHTML, like Gecko) Chrome/74.0.3729.131 Safari/537.36"",""on_chrome"":true,""on_mobile"":false,""language"":""en-US"",""screen_resolution"":[1440,900],""platform"":""MacIntel"",""timezone"":""Europe/Berlin""}","14","1259.759999995213","","","1558338772186","11","","Alfeld","[]","Alfeld","true","false","2052.139999999781"
"","html-voicekey-response","30","173153","0.0-4.26-0.26","1jtlba5vup147vw","{""user_agent"":""Mozilla/5.0 (Macintosh; Intel Mac OS X 10_14_4) AppleWebKit/537.36 (KHTML, like Gecko) Chrome/74.0.3729.131 Safari/537.36"",""on_chrome"":true,""on_mobile"":false,""language"":""en-US"",""screen_resolution"":[1440,900],""platform"":""MacIntel"",""timezone"":""Europe/Berlin""}","14","1171.5249999923167","","","1558338774841","5","","Aachen","[]","Aachen","true","false","1797.3449999990407"
"","html-voicekey-response","31","175437","0.0-4.27-0.27","1jtlba5vup147vw","{""user_agent"":""Mozilla/5.0 (Macintosh; Intel Mac OS X 10_14_4) AppleWebKit/537.36 (KHTML, like Gecko) Chrome/74.0.3729.131 Safari/537.36"",""on_chrome"":true,""on_mobile"":false,""language"":""en-US"",""screen_resolution"":[1440,900],""platform"":""MacIntel"",""timezone"":""Europe/Berlin""}","14","971.1400000031339","","","1558338777241","6","","Dresden","[]","Dresden","true","false","1680.4149999952642"
"","html-voicekey-response","32","178172","0.0-4.28-0.28","1jtlba5vup147vw","{""user_agent"":""Mozilla/5.0 (Macintosh; Intel Mac OS X 10_14_4) AppleWebKit/537.36 (KHTML, like Gecko) Chrome/74.0.3729.131 Safari/537.36"",""on_chrome"":true,""on_mobile"":false,""language"":""en-US"",""screen_resolution"":[1440,900],""platform"":""MacIntel"",""timezone"":""Europe/Berlin""}","14","1603.8500000084518","","","1558338779525","12","","Dessau","[]","Dessau","true","true","2129.4250000064494"
"","html-voicekey-response","33","180561","0.0-4.29-0.29","1jtlba5vup147vw","{""user_agent"":""Mozilla/5.0 (Macintosh; Intel Mac OS X 10_14_4) AppleWebKit/537.36 (KHTML, like Gecko) Chrome/74.0.3729.131 Safari/537.36"",""on_chrome"":true,""on_mobile"":false,""language"":""en-US"",""screen_resolution"":[1440,900],""platform"":""MacIntel"",""timezone"":""Europe/Berlin""}","14","1142.535000000708","","","1558338782261","13","","Chemnitz","[]","Chemnitz","true","true","1784.4849999964936"
"","html-voicekey-response","34","182511","0.0-4.30-0.30","1jtlba5vup147vw","{""user_agent"":""Mozilla/5.0 (Macintosh; Intel Mac OS X 10_14_4) AppleWebKit/537.36 (KHTML, like Gecko) Chrome/74.0.3729.131 Safari/537.36"",""on_chrome"":true,""on_mobile"":false,""language"":""en-US"",""screen_resolution"":[1440,900],""platform"":""MacIntel"",""timezone"":""Europe/Berlin""}","14","855.4800000072922","","","1558338784648","12","","Dessau","[]","Dessau","true","false","1346.6100000077859"
"","html-voicekey-response","35","184528","0.0-4.31-0.31","1jtlba5vup147vw","{""user_agent"":""Mozilla/5.0 (Macintosh; Intel Mac OS X 10_14_4) AppleWebKit/537.36 (KHTML, like Gecko) Chrome/74.0.3729.131 Safari/537.36"",""on_chrome"":true,""on_mobile"":false,""language"":""en-US"",""screen_resolution"":[1440,900],""platform"":""MacIntel"",""timezone"":""Europe/Berlin""}","14","705.7749999892898","","","1558338786598","13","","Chemnitz","[]","Chemnitz","true","false","1414.8199999908684"
"","html-voicekey-response","36","190277","0.0-4.32-0.32","1jtlba5vup147vw","{""user_agent"":""Mozilla/5.0 (Macintosh; Intel Mac OS X 10_14_4) AppleWebKit/537.36 (KHTML, like Gecko) Chrome/74.0.3729.131 Safari/537.36"",""on_chrome"":true,""on_mobile"":false,""language"":""en-US"",""screen_resolution"":[1440,900],""platform"":""MacIntel"",""timezone"":""Europe/Berlin""}","14","1054.7549999990501","","","1558338788616","7","","","[]","Erfurt","false","false","1746.709999992163"
"","html-voicekey-response","37","203540","0.0-4.33-0.33","1jtlba5vup147vw","{""user_agent"":""Mozilla/5.0 (Macintosh; Intel Mac OS X 10_14_4) AppleWebKit/537.36 (KHTML, like Gecko) Chrome/74.0.3729.131 Safari/537.36"",""on_chrome"":true,""on_mobile"":false,""language"":""en-US"",""screen_resolution"":[1440,900],""platform"":""MacIntel"",""timezone"":""Europe/Berlin""}","14","788.4299999949056","","","1558338794365","8","","","[]","Gotha","false","false","9259.460000001127"
"","html-voicekey-response","38","205564","0.0-4.34-0.34","1jtlba5vup147vw","{""user_agent"":""Mozilla/5.0 (Macintosh; Intel Mac OS X 10_14_4) AppleWebKit/537.36 (KHTML, like Gecko) Chrome/74.0.3729.131 Safari/537.36"",""on_chrome"":true,""on_mobile"":false,""language"":""en-US"",""screen_resolution"":[1440,900],""platform"":""MacIntel"",""timezone"":""Europe/Berlin""}","14","937.92999999444","","","1558338807628","9","","München","[]","München","true","false","1421.234999987064"
"","html-voicekey-response","39","207664","0.0-4.35-0.35","1jtlba5vup147vw","{""user_agent"":""Mozilla/5.0 (Macintosh; Intel Mac OS X 10_14_4) AppleWebKit/537.36 (KHTML, like Gecko) Chrome/74.0.3729.131 Safari/537.36"",""on_chrome"":true,""on_mobile"":false,""language"":""en-US"",""screen_resolution"":[1440,900],""platform"":""MacIntel"",""timezone"":""Europe/Berlin""}","14","1021.9250000025844","","","1558338809652","10","","Heidelberg","[]","Heidelberg","true","false","1497.239999996964"
"","html-voicekey-response","40","210532","0.0-4.36-0.36","1jtlba5vup147vw","{""user_agent"":""Mozilla/5.0 (Macintosh; Intel Mac OS X 10_14_4) AppleWebKit/537.36 (KHTML, like Gecko) Chrome/74.0.3729.131 Safari/537.36"",""on_chrome"":true,""on_mobile"":false,""language"":""en-US"",""screen_resolution"":[1440,900],""platform"":""MacIntel"",""timezone"":""Europe/Berlin""}","14","1787.2750000040746","","","1558338811754","14","","Potsdam","[]","Potsdam","true","true","2262.960000007297"
"","html-voicekey-response","41","212847","0.0-4.37-0.37","1jtlba5vup147vw","{""user_agent"":""Mozilla/5.0 (Macintosh; Intel Mac OS X 10_14_4) AppleWebKit/537.36 (KHTML, like Gecko) Chrome/74.0.3729.131 Safari/537.36"",""on_chrome"":true,""on_mobile"":false,""language"":""en-US"",""screen_resolution"":[1440,900],""platform"":""MacIntel"",""timezone"":""Europe/Berlin""}","14","954.5099999903235","","","1558338814619","15","","Nürnberg","[]","Nürnberg","true","true","1712.9099999874597"
"","html-voicekey-response","42","214833","0.0-4.38-0.38","1jtlba5vup147vw","{""user_agent"":""Mozilla/5.0 (Macintosh; Intel Mac OS X 10_14_4) AppleWebKit/537.36 (KHTML, like Gecko) Chrome/74.0.3729.131 Safari/537.36"",""on_chrome"":true,""on_mobile"":false,""language"":""en-US"",""screen_resolution"":[1440,900],""platform"":""MacIntel"",""timezone"":""Europe/Berlin""}","14","905.9800000048475","","","1558338816935","14","","Potsdam","[]","Potsdam","true","false","1381.0899999953108"
"","html-voicekey-response","43","217472","0.0-4.39-0.39","1jtlba5vup147vw","{""user_agent"":""Mozilla/5.0 (Macintosh; Intel Mac OS X 10_14_4) AppleWebKit/537.36 (KHTML, like Gecko) Chrome/74.0.3729.131 Safari/537.36"",""on_chrome"":true,""on_mobile"":false,""language"":""en-US"",""screen_resolution"":[1440,900],""platform"":""MacIntel"",""timezone"":""Europe/Berlin""}","14","1461.1300000049873","","","1558338818921","15","","Nürnberg","[]","Nürnberg","true","false","2036.1850000044797"
"","html-voicekey-response","44","219955","0.0-4.40-0.40","1jtlba5vup147vw","{""user_agent"":""Mozilla/5.0 (Macintosh; Intel Mac OS X 10_14_4) AppleWebKit/537.36 (KHTML, like Gecko) Chrome/74.0.3729.131 Safari/537.36"",""on_chrome"":true,""on_mobile"":false,""language"":""en-US"",""screen_resolution"":[1440,900],""platform"":""MacIntel"",""timezone"":""Europe/Berlin""}","14","1355.24499999322","","","1558338821560","11","","Alfeld","[]","Alfeld","true","false","1880.654999986291"
"","html-voicekey-response","45","222473","0.0-4.41-0.41","1jtlba5vup147vw","{""user_agent"":""Mozilla/5.0 (Macintosh; Intel Mac OS X 10_14_4) AppleWebKit/537.36 (KHTML, like Gecko) Chrome/74.0.3729.131 Safari/537.36"",""on_chrome"":true,""on_mobile"":false,""language"":""en-US"",""screen_resolution"":[1440,900],""platform"":""MacIntel"",""timezone"":""Europe/Berlin""}","14","1389.6150000017137","","","1558338824043","16","","Schwangau","[]","Schwangau","true","true","1915.0099999969825"
"","html-voicekey-response","46","232789","0.0-4.42-0.42","1jtlba5vup147vw","{""user_agent"":""Mozilla/5.0 (Macintosh; Intel Mac OS X 10_14_4) AppleWebKit/537.36 (KHTML, like Gecko) Chrome/74.0.3729.131 Safari/537.36"",""on_chrome"":true,""on_mobile"":false,""language"":""en-US"",""screen_resolution"":[1440,900],""platform"":""MacIntel"",""timezone"":""Europe/Berlin""}","14","3987.52000000407","","","1558338826561","17","","Leipzig","[]","Leipzig","true","true","9712.615000011283"
"","html-voicekey-response","47","234983","0.0-4.43-0.43","1jtlba5vup147vw","{""user_agent"":""Mozilla/5.0 (Macintosh; Intel Mac OS X 10_14_4) AppleWebKit/537.36 (KHTML, like Gecko) Chrome/74.0.3729.131 Safari/537.36"",""on_chrome"":true,""on_mobile"":false,""language"":""en-US"",""screen_resolution"":[1440,900],""platform"":""MacIntel"",""timezone"":""Europe/Berlin""}","14","828.344999996107","","","1558338836881","16","","Schwangau","[]","Schwangau","true","false","1586.8000000045868"
"","html-voicekey-response","48","238400","0.0-4.44-0.44","1jtlba5vup147vw","{""user_agent"":""Mozilla/5.0 (Macintosh; Intel Mac OS X 10_14_4) AppleWebKit/537.36 (KHTML, like Gecko) Chrome/74.0.3729.131 Safari/537.36"",""on_chrome"":true,""on_mobile"":false,""language"":""en-US"",""screen_resolution"":[1440,900],""platform"":""MacIntel"",""timezone"":""Europe/Berlin""}","14","2221.4500000062167","","","1558338839071","17","","Leipzig","[]","Leipzig","true","false","2813.78000001132"
"","html-voicekey-response","49","241392","0.0-4.45-0.45","1jtlba5vup147vw","{""user_agent"":""Mozilla/5.0 (Macintosh; Intel Mac OS X 10_14_4) AppleWebKit/537.36 (KHTML, like Gecko) Chrome/74.0.3729.131 Safari/537.36"",""on_chrome"":true,""on_mobile"":false,""language"":""en-US"",""screen_resolution"":[1440,900],""platform"":""MacIntel"",""timezone"":""Europe/Berlin""}","14","1880.054999995837","","","1558338842488","13","","Chemnitz","[]","Chemnitz","true","false","2389.1599999915343"
"","html-voicekey-response","50","244425","0.0-4.46-0.46","1jtlba5vup147vw","{""user_agent"":""Mozilla/5.0 (Macintosh; Intel Mac OS X 10_14_4) AppleWebKit/537.36 (KHTML, like Gecko) Chrome/74.0.3729.131 Safari/537.36"",""on_chrome"":true,""on_mobile"":false,""language"":""en-US"",""screen_resolution"":[1440,900],""platform"":""MacIntel"",""timezone"":""Europe/Berlin""}","14","1887.8099999945612","","","1558338845480","12","","Dessau","[]","Dessau","true","false","2430.38499999966"
"","html-voicekey-response","51","250492","0.0-4.47-0.47","1jtlba5vup147vw","{""user_agent"":""Mozilla/5.0 (Macintosh; Intel Mac OS X 10_14_4) AppleWebKit/537.36 (KHTML, like Gecko) Chrome/74.0.3729.131 Safari/537.36"",""on_chrome"":true,""on_mobile"":false,""language"":""en-US"",""screen_resolution"":[1440,900],""platform"":""MacIntel"",""timezone"":""Europe/Berlin""}","14","1288.039999993844","","","1558338848513","7","","","[]","Erfurt","false","false","2063.8400000025285"
"","html-voicekey-response","52","252320","0.0-4.48-0.48","1jtlba5vup147vw","{""user_agent"":""Mozilla/5.0 (Macintosh; Intel Mac OS X 10_14_4) AppleWebKit/537.36 (KHTML, like Gecko) Chrome/74.0.3729.131 Safari/537.36"",""on_chrome"":true,""on_mobile"":false,""language"":""en-US"",""screen_resolution"":[1440,900],""platform"":""MacIntel"",""timezone"":""Europe/Berlin""}","14","753.8949999960372","","","1558338854580","8","","Gotha","[]","Gotha","true","false","1225.0249999924563"
"","html-voicekey-response","53","255170","0.0-4.49-0.49","1jtlba5vup147vw","{""user_agent"":""Mozilla/5.0 (Macintosh; Intel Mac OS X 10_14_4) AppleWebKit/537.36 (KHTML, like Gecko) Chrome/74.0.3729.131 Safari/537.36"",""on_chrome"":true,""on_mobile"":false,""language"":""en-US"",""screen_resolution"":[1440,900],""platform"":""MacIntel"",""timezone"":""Europe/Berlin""}","14","1670.2299999977463","","","1558338856409","18","","Forchheim","[]","Forchheim","true","true","2244.7899999970105"
"","html-voicekey-response","54","258154","0.0-4.50-0.50","1jtlba5vup147vw","{""user_agent"":""Mozilla/5.0 (Macintosh; Intel Mac OS X 10_14_4) AppleWebKit/537.36 (KHTML, like Gecko) Chrome/74.0.3729.131 Safari/537.36"",""on_chrome"":true,""on_mobile"":false,""language"":""en-US"",""screen_resolution"":[1440,900],""platform"":""MacIntel"",""timezone"":""Europe/Berlin""}","14","1872.235000011488","","","1558338859257","14","","Potsdam","[]","Potsdam","true","false","2381.2050000124145"
"","html-voicekey-response","55","268954","0.0-4.51-0.51","1jtlba5vup147vw","{""user_agent"":""Mozilla/5.0 (Macintosh; Intel Mac OS X 10_14_4) AppleWebKit/537.36 (KHTML, like Gecko) Chrome/74.0.3729.131 Safari/537.36"",""on_chrome"":true,""on_mobile"":false,""language"":""en-US"",""screen_resolution"":[1440,900],""platform"":""MacIntel"",""timezone"":""Europe/Berlin""}","14","6038.114999997406","","","1558338862241","18","","","[]","Forchheim","false","false","6796.820000003208"
"","html-voicekey-response","56","272314","0.0-4.52-0.52","1jtlba5vup147vw","{""user_agent"":""Mozilla/5.0 (Macintosh; Intel Mac OS X 10_14_4) AppleWebKit/537.36 (KHTML, like Gecko) Chrome/74.0.3729.131 Safari/537.36"",""on_chrome"":true,""on_mobile"":false,""language"":""en-US"",""screen_resolution"":[1440,900],""platform"":""MacIntel"",""timezone"":""Europe/Berlin""}","14","2249.6349999945146","","","1558338873042","15","","Nürnberg","[]","Nürnberg","true","false","2757.0299999933923"
"","html-voicekey-response","57","277416","0.0-4.53-0.53","1jtlba5vup147vw","{""user_agent"":""Mozilla/5.0 (Macintosh; Intel Mac OS X 10_14_4) AppleWebKit/537.36 (KHTML, like Gecko) Chrome/74.0.3729.131 Safari/537.36"",""on_chrome"":true,""on_mobile"":false,""language"":""en-US"",""screen_resolution"":[1440,900],""platform"":""MacIntel"",""timezone"":""Europe/Berlin""}","14","3606.580000001332","","","1558338876401","7","","Erfurt","[]","Erfurt","true","false","4498.334999996587"
"","html-voicekey-response","58","279972","0.0-4.54-0.54","1jtlba5vup147vw","{""user_agent"":""Mozilla/5.0 (Macintosh; Intel Mac OS X 10_14_4) AppleWebKit/537.36 (KHTML, like Gecko) Chrome/74.0.3729.131 Safari/537.36"",""on_chrome"":true,""on_mobile"":false,""language"":""en-US"",""screen_resolution"":[1440,900],""platform"":""MacIntel"",""timezone"":""Europe/Berlin""}","14","1427.9349999940955","","","1558338881503","19","","Frankfurt","[]","Frankfurt","true","true","1953.3449999871664"
"","html-voicekey-response","59","282404","0.0-4.55-0.55","1jtlba5vup147vw","{""user_agent"":""Mozilla/5.0 (Macintosh; Intel Mac OS X 10_14_4) AppleWebKit/537.36 (KHTML, like Gecko) Chrome/74.0.3729.131 Safari/537.36"",""on_chrome"":true,""on_mobile"":false,""language"":""en-US"",""screen_resolution"":[1440,900],""platform"":""MacIntel"",""timezone"":""Europe/Berlin""}","14","1154.4300000039862","","","1558338884059","20","","Hamburg ","[]","Hamburg ","true","true","1830.019999993965"
"","html-voicekey-response","60","284672","0.0-4.56-0.56","1jtlba5vup147vw","{""user_agent"":""Mozilla/5.0 (Macintosh; Intel Mac OS X 10_14_4) AppleWebKit/537.36 (KHTML, like Gecko) Chrome/74.0.3729.131 Safari/537.36"",""on_chrome"":true,""on_mobile"":false,""language"":""en-US"",""screen_resolution"":[1440,900],""platform"":""MacIntel"",""timezone"":""Europe/Berlin""}","14","1138.9550000111108","","","1558338886492","19","","Frankfurt","[]","Frankfurt","true","false","1665.2949999988778"
"","html-voicekey-response","61","286570","0.0-4.57-0.57","1jtlba5vup147vw","{""user_agent"":""Mozilla/5.0 (Macintosh; Intel Mac OS X 10_14_4) AppleWebKit/537.36 (KHTML, like Gecko) Chrome/74.0.3729.131 Safari/537.36"",""on_chrome"":true,""on_mobile"":false,""language"":""en-US"",""screen_resolution"":[1440,900],""platform"":""MacIntel"",""timezone"":""Europe/Berlin""}","14","737.7899999936111","","","1558338888759","20","","Hamburg ","[]","Hamburg ","true","false","1296.0299999976996"
"","html-voicekey-response","62","288648","0.0-4.58-0.58","1jtlba5vup147vw","{""user_agent"":""Mozilla/5.0 (Macintosh; Intel Mac OS X 10_14_4) AppleWebKit/537.36 (KHTML, like Gecko) Chrome/74.0.3729.131 Safari/537.36"",""on_chrome"":true,""on_mobile"":false,""language"":""en-US"",""screen_resolution"":[1440,900],""platform"":""MacIntel"",""timezone"":""Europe/Berlin""}","14","972.5149999956833","","","1558338890658","16","","Schwangau","[]","Schwangau","true","false","1474.4149999896763"
"","html-voicekey-response","63","290580","0.0-4.59-0.59","1jtlba5vup147vw","{""user_agent"":""Mozilla/5.0 (Macintosh; Intel Mac OS X 10_14_4) AppleWebKit/537.36 (KHTML, like Gecko) Chrome/74.0.3729.131 Safari/537.36"",""on_chrome"":true,""on_mobile"":false,""language"":""en-US"",""screen_resolution"":[1440,900],""platform"":""MacIntel"",""timezone"":""Europe/Berlin""}","14","920.265000002319","","","1558338892736","17","","Leipzig","[]","Leipzig","true","false","1329.119999994873"
"","html-voicekey-response","64","293630","0.0-4.60-0.60","1jtlba5vup147vw","{""user_agent"":""Mozilla/5.0 (Macintosh; Intel Mac OS X 10_14_4) AppleWebKit/537.36 (KHTML, like Gecko) Chrome/74.0.3729.131 Safari/537.36"",""on_chrome"":true,""on_mobile"":false,""language"":""en-US"",""screen_resolution"":[1440,900],""platform"":""MacIntel"",""timezone"":""Europe/Berlin""}","14","1587.8299999984215","","","1558338894668","21","","Konstanz","[]","Konstanz","true","true","2447.410000007949"
"","html-voicekey-response","65","297213","0.0-4.61-0.61","1jtlba5vup147vw","{""user_agent"":""Mozilla/5.0 (Macintosh; Intel Mac OS X 10_14_4) AppleWebKit/537.36 (KHTML, like Gecko) Chrome/74.0.3729.131 Safari/537.36"",""on_chrome"":true,""on_mobile"":false,""language"":""en-US"",""screen_resolution"":[1440,900],""platform"":""MacIntel"",""timezone"":""Europe/Berlin""}","14","2505.2099999973784","","","1558338897718","7","","Erfurt","[]","Erfurt","true","false","2980.215000003227"
"","html-voicekey-response","66","307137","0.0-4.62-0.62","1jtlba5vup147vw","{""user_agent"":""Mozilla/5.0 (Macintosh; Intel Mac OS X 10_14_4) AppleWebKit/537.36 (KHTML, like Gecko) Chrome/74.0.3729.131 Safari/537.36"",""on_chrome"":true,""on_mobile"":false,""language"":""en-US"",""screen_resolution"":[1440,900],""platform"":""MacIntel"",""timezone"":""Europe/Berlin""}","14","4662.364999990887","","","1558338901301","21","","","[]","Konstanz","false","false","5921.034999992116"
"","html-voicekey-response","67","312310","0.0-4.63-0.63","1jtlba5vup147vw","{""user_agent"":""Mozilla/5.0 (Macintosh; Intel Mac OS X 10_14_4) AppleWebKit/537.36 (KHTML, like Gecko) Chrome/74.0.3729.131 Safari/537.36"",""on_chrome"":true,""on_mobile"":false,""language"":""en-US"",""screen_resolution"":[1440,900],""platform"":""MacIntel"",""timezone"":""Europe/Berlin""}","14","3971.929999994091","","","1558338911224","18","","Forchheim","[]","Forchheim","true","false","4571.239999990212"
"","html-voicekey-response","68","314878","0.0-4.64-0.64","1jtlba5vup147vw","{""user_agent"":""Mozilla/5.0 (Macintosh; Intel Mac OS X 10_14_4) AppleWebKit/537.36 (KHTML, like Gecko) Chrome/74.0.3729.131 Safari/537.36"",""on_chrome"":true,""on_mobile"":false,""language"":""en-US"",""screen_resolution"":[1440,900],""platform"":""MacIntel"",""timezone"":""Europe/Berlin""}","14","1439.0300000030315","","","1558338916399","22","","Bamberg","[]","Bamberg","true","true","1964.300000006915"
"","html-voicekey-response","69","317495","0.0-4.65-0.65","1jtlba5vup147vw","{""user_agent"":""Mozilla/5.0 (Macintosh; Intel Mac OS X 10_14_4) AppleWebKit/537.36 (KHTML, like Gecko) Chrome/74.0.3729.131 Safari/537.36"",""on_chrome"":true,""on_mobile"":false,""language"":""en-US"",""screen_resolution"":[1440,900],""platform"":""MacIntel"",""timezone"":""Europe/Berlin""}","14","1619.665000000014","","","1558338918968","23","","Stuttgart","[]","Stuttgart","true","true","2011.6949999937788"
"","html-voicekey-response","70","325485","0.0-4.66-0.66","1jtlba5vup147vw","{""user_agent"":""Mozilla/5.0 (Macintosh; Intel Mac OS X 10_14_4) AppleWebKit/537.36 (KHTML, like Gecko) Chrome/74.0.3729.131 Safari/537.36"",""on_chrome"":true,""on_mobile"":false,""language"":""en-US"",""screen_resolution"":[1440,900],""platform"":""MacIntel"",""timezone"":""Europe/Berlin""}","14","3338.1350000070875","","","1558338921583","22","","","[]","Bamberg","false","false","3987.1149999962654"
"","html-voicekey-response","71","327202","0.0-4.67-0.67","1jtlba5vup147vw","{""user_agent"":""Mozilla/5.0 (Macintosh; Intel Mac OS X 10_14_4) AppleWebKit/537.36 (KHTML, like Gecko) Chrome/74.0.3729.131 Safari/537.36"",""on_chrome"":true,""on_mobile"":false,""language"":""en-US"",""screen_resolution"":[1440,900],""platform"":""MacIntel"",""timezone"":""Europe/Berlin""}","14","638.4899999919347","","","1558338929573","23","","Stuttgart","[]","Stuttgart","true","false","1114.2299999919487"
"","html-voicekey-response","72","329238","0.0-4.68-0.68","1jtlba5vup147vw","{""user_agent"":""Mozilla/5.0 (Macintosh; Intel Mac OS X 10_14_4) AppleWebKit/537.36 (KHTML, like Gecko) Chrome/74.0.3729.131 Safari/537.36"",""on_chrome"":true,""on_mobile"":false,""language"":""en-US"",""screen_resolution"":[1440,900],""platform"":""MacIntel"",""timezone"":""Europe/Berlin""}","14","1005.0750000026077","","","1558338931290","19","","Frankfurt","[]","Frankfurt","true","false","1430.9199999988778"
"","html-voicekey-response","73","331327","0.0-4.69-0.69","1jtlba5vup147vw","{""user_agent"":""Mozilla/5.0 (Macintosh; Intel Mac OS X 10_14_4) AppleWebKit/537.36 (KHTML, like Gecko) Chrome/74.0.3729.131 Safari/537.36"",""on_chrome"":true,""on_mobile"":false,""language"":""en-US"",""screen_resolution"":[1440,900],""platform"":""MacIntel"",""timezone"":""Europe/Berlin""}","14","1009.5749999980675","","","1558338933326","20","","Hamburg ","[]","Hamburg ","true","false","1485.4950000008103"
"","html-voicekey-response","74","333577","0.0-4.70-0.70","1jtlba5vup147vw","{""user_agent"":""Mozilla/5.0 (Macintosh; Intel Mac OS X 10_14_4) AppleWebKit/537.36 (KHTML, like Gecko) Chrome/74.0.3729.131 Safari/537.36"",""on_chrome"":true,""on_mobile"":false,""language"":""en-US"",""screen_resolution"":[1440,900],""platform"":""MacIntel"",""timezone"":""Europe/Berlin""}","14","1304.180000000843","","","1558338935416","24","","Köln","[]","Köln","true","true","1646.3000000076136"
"","html-voicekey-response","75","336443","0.0-4.71-0.71","1jtlba5vup147vw","{""user_agent"":""Mozilla/5.0 (Macintosh; Intel Mac OS X 10_14_4) AppleWebKit/537.36 (KHTML, like Gecko) Chrome/74.0.3729.131 Safari/537.36"",""on_chrome"":true,""on_mobile"":false,""language"":""en-US"",""screen_resolution"":[1440,900],""platform"":""MacIntel"",""timezone"":""Europe/Berlin""}","14","1604.6149999982213","","","1558338937665","25","","Osnabrück","[]","Osnabrück","true","true","2262.8750000003492"
"","html-voicekey-response","76","338776","0.0-4.72-0.72","1jtlba5vup147vw","{""user_agent"":""Mozilla/5.0 (Macintosh; Intel Mac OS X 10_14_4) AppleWebKit/537.36 (KHTML, like Gecko) Chrome/74.0.3729.131 Safari/537.36"",""on_chrome"":true,""on_mobile"":false,""language"":""en-US"",""screen_resolution"":[1440,900],""platform"":""MacIntel"",""timezone"":""Europe/Berlin""}","14","1056.5999999906403","","","1558338940530","24","","Köln","[]","Köln","true","false","1731.034999989788"
"","html-voicekey-response","77","341168","0.0-4.73-0.73","1jtlba5vup147vw","{""user_agent"":""Mozilla/5.0 (Macintosh; Intel Mac OS X 10_14_4) AppleWebKit/537.36 (KHTML, like Gecko) Chrome/74.0.3729.131 Safari/537.36"",""on_chrome"":true,""on_mobile"":false,""language"":""en-US"",""screen_resolution"":[1440,900],""platform"":""MacIntel"",""timezone"":""Europe/Berlin""}","14","1306.155000007339","","","1558338942863","25","","Osnabrück","[]","Osnabrück","true","false","1789.600000003702"
"","html-voicekey-response","78","344585","0.0-4.74-0.74","1jtlba5vup147vw","{""user_agent"":""Mozilla/5.0 (Macintosh; Intel Mac OS X 10_14_4) AppleWebKit/537.36 (KHTML, like Gecko) Chrome/74.0.3729.131 Safari/537.36"",""on_chrome"":true,""on_mobile"":false,""language"":""en-US"",""screen_resolution"":[1440,900],""platform"":""MacIntel"",""timezone"":""Europe/Berlin""}","14","2371.894999998249","","","1558338945255","7","","Erfurt","[]","Erfurt","true","false","2814.585000000079"
"","html-voicekey-response","79","348984","0.0-4.75-0.75","1jtlba5vup147vw","{""user_agent"":""Mozilla/5.0 (Macintosh; Intel Mac OS X 10_14_4) AppleWebKit/537.36 (KHTML, like Gecko) Chrome/74.0.3729.131 Safari/537.36"",""on_chrome"":true,""on_mobile"":false,""language"":""en-US"",""screen_resolution"":[1440,900],""platform"":""MacIntel"",""timezone"":""Europe/Berlin""}","14","3021.1700000016485","","","1558338948673","21","","Konstanz","[]","Konstanz","true","false","3796.394999997574"
"","html-voicekey-response","80","359760","0.0-4.76-0.76","1jtlba5vup147vw","{""user_agent"":""Mozilla/5.0 (Macintosh; Intel Mac OS X 10_14_4) AppleWebKit/537.36 (KHTML, like Gecko) Chrome/74.0.3729.131 Safari/537.36"",""on_chrome"":true,""on_mobile"":false,""language"":""en-US"",""screen_resolution"":[1440,900],""platform"":""MacIntel"",""timezone"":""Europe/Berlin""}","14","6271.479999990179","","","1558338953072","18","","","[]","Forchheim","false","false","6772.81499998935"
"","html-voicekey-response","81","363161","0.0-4.77-0.77","1jtlba5vup147vw","{""user_agent"":""Mozilla/5.0 (Macintosh; Intel Mac OS X 10_14_4) AppleWebKit/537.36 (KHTML, like Gecko) Chrome/74.0.3729.131 Safari/537.36"",""on_chrome"":true,""on_mobile"":false,""language"":""en-US"",""screen_resolution"":[1440,900],""platform"":""MacIntel"",""timezone"":""Europe/Berlin""}","14","100","","","1558338963848","26","","Freiburg","[]","Freiburg","true","true","2797.309999994468"
"","html-voicekey-response","82","366291","0.0-4.78-0.78","1jtlba5vup147vw","{""user_agent"":""Mozilla/5.0 (Macintosh; Intel Mac OS X 10_14_4) AppleWebKit/537.36 (KHTML, like Gecko) Chrome/74.0.3729.131 Safari/537.36"",""on_chrome"":true,""on_mobile"":false,""language"":""en-US"",""screen_resolution"":[1440,900],""platform"":""MacIntel"",""timezone"":""Europe/Berlin""}","14","1935.0000000066125","","","1558338967249","22","","Bamberg","[]","Bamberg","true","false","2526.960000002873"
"","html-voicekey-response","83","374206","0.0-4.79-0.79","1jtlba5vup147vw","{""user_agent"":""Mozilla/5.0 (Macintosh; Intel Mac OS X 10_14_4) AppleWebKit/537.36 (KHTML, like Gecko) Chrome/74.0.3729.131 Safari/537.36"",""on_chrome"":true,""on_mobile"":false,""language"":""en-US"",""screen_resolution"":[1440,900],""platform"":""MacIntel"",""timezone"":""Europe/Berlin""}","14","987.8850000039441","","","1558338970379","26","","","[]","Freiburg","false","false","3912.354999993113"
"","html-voicekey-response","84","376314","0.0-4.80-0.80","1jtlba5vup147vw","{""user_agent"":""Mozilla/5.0 (Macintosh; Intel Mac OS X 10_14_4) AppleWebKit/537.36 (KHTML, like Gecko) Chrome/74.0.3729.131 Safari/537.36"",""on_chrome"":true,""on_mobile"":false,""language"":""en-US"",""screen_resolution"":[1440,900],""platform"":""MacIntel"",""timezone"":""Europe/Berlin""}","14","846.0949999951757","","","1558338978294","23","","Stuttgart","[]","Stuttgart","true","false","1504.4199999974808"
"","html-voicekey-response","85","378247","0.0-4.81-0.81","1jtlba5vup147vw","{""user_agent"":""Mozilla/5.0 (Macintosh; Intel Mac OS X 10_14_4) AppleWebKit/537.36 (KHTML, like Gecko) Chrome/74.0.3729.131 Safari/537.36"",""on_chrome"":true,""on_mobile"":false,""language"":""en-US"",""screen_resolution"":[1440,900],""platform"":""MacIntel"",""timezone"":""Europe/Berlin""}","14","922.4099999936064","","","1558338980402","2","","Berlin","[]","Berlin","true","false","1330.40500000061"
"","html-voicekey-response","86","382700","0.0-4.82-0.82","1jtlba5vup147vw","{""user_agent"":""Mozilla/5.0 (Macintosh; Intel Mac OS X 10_14_4) AppleWebKit/537.36 (KHTML, like Gecko) Chrome/74.0.3729.131 Safari/537.36"",""on_chrome"":true,""on_mobile"":false,""language"":""en-US"",""screen_resolution"":[1440,900],""platform"":""MacIntel"",""timezone"":""Europe/Berlin""}","14","3354.63499999044","","","1558338982337","18","","Forchheim","[]","Forchheim","true","false","3845.949999988079"
"","html-voicekey-response","87","384539","0.0-4.83-0.83","1jtlba5vup147vw","{""user_agent"":""Mozilla/5.0 (Macintosh; Intel Mac OS X 10_14_4) AppleWebKit/537.36 (KHTML, like Gecko) Chrome/74.0.3729.131 Safari/537.36"",""on_chrome"":true,""on_mobile"":false,""language"":""en-US"",""screen_resolution"":[1440,900],""platform"":""MacIntel"",""timezone"":""Europe/Berlin""}","14","809.9299999974668","","","1558338986788","24","","Köln","[]","Köln","true","false","1236.124999995809"
"","html-voicekey-response","88","392072","0.0-4.84-0.84","1jtlba5vup147vw","{""user_agent"":""Mozilla/5.0 (Macintosh; Intel Mac OS X 10_14_4) AppleWebKit/537.36 (KHTML, like Gecko) Chrome/74.0.3729.131 Safari/537.36"",""on_chrome"":true,""on_mobile"":false,""language"":""en-US"",""screen_resolution"":[1440,900],""platform"":""MacIntel"",""timezone"":""Europe/Berlin""}","14","2355.3450000125217","","","1558338988627","25","","","[]","Osnabrück","false","false","3530.4700000124285"
"","html-voicekey-response","89","402696","0.0-4.85-0.85","1jtlba5vup147vw","{""user_agent"":""Mozilla/5.0 (Macintosh; Intel Mac OS X 10_14_4) AppleWebKit/537.36 (KHTML, like Gecko) Chrome/74.0.3729.131 Safari/537.36"",""on_chrome"":true,""on_mobile"":false,""language"":""en-US"",""screen_resolution"":[1440,900],""platform"":""MacIntel"",""timezone"":""Europe/Berlin""}","14","6121.659999998728","","","1558338996160","21","","","[]","Konstanz","false","false","6621.295000004466"
"","html-voicekey-response","90","407286","0.0-4.86-0.86","1jtlba5vup147vw","{""user_agent"":""Mozilla/5.0 (Macintosh; Intel Mac OS X 10_14_4) AppleWebKit/537.36 (KHTML, like Gecko) Chrome/74.0.3729.131 Safari/537.36"",""on_chrome"":true,""on_mobile"":false,""language"":""en-US"",""screen_resolution"":[1440,900],""platform"":""MacIntel"",""timezone"":""Europe/Berlin""}","14","3387.584999998426","","","1558339006784","18","","Forchheim","[]","Forchheim","true","false","3986.895000009099"
"","html-voicekey-response","91","410170","0.0-4.87-0.87","1jtlba5vup147vw","{""user_agent"":""Mozilla/5.0 (Macintosh; Intel Mac OS X 10_14_4) AppleWebKit/537.36 (KHTML, like Gecko) Chrome/74.0.3729.131 Safari/537.36"",""on_chrome"":true,""on_mobile"":false,""language"":""en-US"",""screen_resolution"":[1440,900],""platform"":""MacIntel"",""timezone"":""Europe/Berlin""}","14","1788.7699999935926","","","1558339011374","7","","Erfurt","[]","Erfurt","true","false","2281.0799999861047"
"","html-voicekey-response","92","412952","0.0-4.88-0.88","1jtlba5vup147vw","{""user_agent"":""Mozilla/5.0 (Macintosh; Intel Mac OS X 10_14_4) AppleWebKit/537.36 (KHTML, like Gecko) Chrome/74.0.3729.131 Safari/537.36"",""on_chrome"":true,""on_mobile"":false,""language"":""en-US"",""screen_resolution"":[1440,900],""platform"":""MacIntel"",""timezone"":""Europe/Berlin""}","14","1585.9549999966753","","","1558339014259","27","","Tübingen","[]","Tübingen","true","true","2178.04499999329"
"","html-voicekey-response","93","427510","0.0-4.89-0.89","1jtlba5vup147vw","{""user_agent"":""Mozilla/5.0 (Macintosh; Intel Mac OS X 10_14_4) AppleWebKit/537.36 (KHTML, like Gecko) Chrome/74.0.3729.131 Safari/537.36"",""on_chrome"":true,""on_mobile"":false,""language"":""en-US"",""screen_resolution"":[1440,900],""platform"":""MacIntel"",""timezone"":""Europe/Berlin""}","14","7770.929999993159","","","1558339017041","26","","","[]","Freiburg","false","false","10553.92999999458"
"","html-voicekey-response","94","440085","0.0-4.90-0.90","1jtlba5vup147vw","{""user_agent"":""Mozilla/5.0 (Macintosh; Intel Mac OS X 10_14_4) AppleWebKit/537.36 (KHTML, like Gecko) Chrome/74.0.3729.131 Safari/537.36"",""on_chrome"":true,""on_mobile"":false,""language"":""en-US"",""screen_resolution"":[1440,900],""platform"":""MacIntel"",""timezone"":""Europe/Berlin""}","14","100","","","1558339031599","27","","","[]","Tübingen","false","false","8571.00999999966"
"","html-voicekey-response","95","453649","0.0-4.91-0.91","1jtlba5vup147vw","{""user_agent"":""Mozilla/5.0 (Macintosh; Intel Mac OS X 10_14_4) AppleWebKit/537.36 (KHTML, like Gecko) Chrome/74.0.3729.131 Safari/537.36"",""on_chrome"":true,""on_mobile"":false,""language"":""en-US"",""screen_resolution"":[1440,900],""platform"":""MacIntel"",""timezone"":""Europe/Berlin""}","14","8917.660000000824","","","1558339044173","21","","","[]","Konstanz","false","false","9559.055000005173"
"","html-voicekey-response","96","456256","0.0-4.92-0.92","1jtlba5vup147vw","{""user_agent"":""Mozilla/5.0 (Macintosh; Intel Mac OS X 10_14_4) AppleWebKit/537.36 (KHTML, like Gecko) Chrome/74.0.3729.131 Safari/537.36"",""on_chrome"":true,""on_mobile"":false,""language"":""en-US"",""screen_resolution"":[1440,900],""platform"":""MacIntel"",""timezone"":""Europe/Berlin""}","14","1577.5099999971922","","","1558339057737","18","","Forchheim","[]","Forchheim","true","false","2003.2999999966705"
"","html-voicekey-response","97","463489","0.0-4.93-0.93","1jtlba5vup147vw","{""user_agent"":""Mozilla/5.0 (Macintosh; Intel Mac OS X 10_14_4) AppleWebKit/537.36 (KHTML, like Gecko) Chrome/74.0.3729.131 Safari/537.36"",""on_chrome"":true,""on_mobile"":false,""language"":""en-US"",""screen_resolution"":[1440,900],""platform"":""MacIntel"",""timezone"":""Europe/Berlin""}","14","2370.8449999920326","","","1558339060344","25","","","[]","Osnabrück","false","false","3229.7299999918323"
"","html-voicekey-response","98","478649","0.0-4.94-0.94","1jtlba5vup147vw","{""user_agent"":""Mozilla/5.0 (Macintosh; Intel Mac OS X 10_14_4) AppleWebKit/537.36 (KHTML, like Gecko) Chrome/74.0.3729.131 Safari/537.36"",""on_chrome"":true,""on_mobile"":false,""language"":""en-US"",""screen_resolution"":[1440,900],""platform"":""MacIntel"",""timezone"":""Europe/Berlin""}","14","10611.639999997196","","","1558339067577","21","","","[]","Konstanz","false","false","11154.909999997471"
"","html-voicekey-response","99","481525","0.0-4.95-0.95","1jtlba5vup147vw","{""user_agent"":""Mozilla/5.0 (Macintosh; Intel Mac OS X 10_14_4) AppleWebKit/537.36 (KHTML, like Gecko) Chrome/74.0.3729.131 Safari/537.36"",""on_chrome"":true,""on_mobile"":false,""language"":""en-US"",""screen_resolution"":[1440,900],""platform"":""MacIntel"",""timezone"":""Europe/Berlin""}","14","1813.4200000002515","","","1558339082738","26","","Freiburg","[]","Freiburg","true","false","2271.9649999926332"
"","html-voicekey-response","100","483775","0.0-4.96-0.96","1jtlba5vup147vw","{""user_agent"":""Mozilla/5.0 (Macintosh; Intel Mac OS X 10_14_4) AppleWebKit/537.36 (KHTML, like Gecko) Chrome/74.0.3729.131 Safari/537.36"",""on_chrome"":true,""on_mobile"":false,""language"":""en-US"",""screen_resolution"":[1440,900],""platform"":""MacIntel"",""timezone"":""Europe/Berlin""}","14","1188.6100000063657","","","1558339085613","1","","Magdeburg","[]","Magdeburg","true","false","1646.8150000000605"
"","html-voicekey-response","101","485825","0.0-4.97-0.97","1jtlba5vup147vw","{""user_agent"":""Mozilla/5.0 (Macintosh; Intel Mac OS X 10_14_4) AppleWebKit/537.36 (KHTML, like Gecko) Chrome/74.0.3729.131 Safari/537.36"",""on_chrome"":true,""on_mobile"":false,""language"":""en-US"",""screen_resolution"":[1440,900],""platform"":""MacIntel"",""timezone"":""Europe/Berlin""}","14","987.9749999907566","","","1558339087863","7","","Erfurt","[]","Erfurt","true","false","1446.8249999918044"
"","html-voicekey-response","102","489100","0.0-4.98-0.98","1jtlba5vup147vw","{""user_agent"":""Mozilla/5.0 (Macintosh; Intel Mac OS X 10_14_4) AppleWebKit/537.36 (KHTML, like Gecko) Chrome/74.0.3729.131 Safari/537.36"",""on_chrome"":true,""on_mobile"":false,""language"":""en-US"",""screen_resolution"":[1440,900],""platform"":""MacIntel"",""timezone"":""Europe/Berlin""}","14","2162.7799999931362","","","1558339089914","25","","Osnabrück","[]","Osnabrück","true","false","2671.249999999418"
"","html-voicekey-response","103","491484","0.0-4.99-0.99","1jtlba5vup147vw","{""user_agent"":""Mozilla/5.0 (Macintosh; Intel Mac OS X 10_14_4) AppleWebKit/537.36 (KHTML, like Gecko) Chrome/74.0.3729.131 Safari/537.36"",""on_chrome"":true,""on_mobile"":false,""language"":""en-US"",""screen_resolution"":[1440,900],""platform"":""MacIntel"",""timezone"":""Europe/Berlin""}","14","1303.905000002333","","","1558339093189","27","","Tübingen","[]","Tübingen","true","false","1780.1449999969918"
"","html-voicekey-response","104","495134","0.0-4.100-0.100","1jtlba5vup147vw","{""user_agent"":""Mozilla/5.0 (Macintosh; Intel Mac OS X 10_14_4) AppleWebKit/537.36 (KHTML, like Gecko) Chrome/74.0.3729.131 Safari/537.36"",""on_chrome"":true,""on_mobile"":false,""language"":""en-US"",""screen_resolution"":[1440,900],""platform"":""MacIntel"",""timezone"":""Europe/Berlin""}","14","2420.269999996736","","","1558339095573","18","","Forchheim","[]","Forchheim","true","false","3045.959999988554"
"","html-voicekey-response","105","501160","0.0-4.101-0.101","1jtlba5vup147vw","{""user_agent"":""Mozilla/5.0 (Macintosh; Intel Mac OS X 10_14_4) AppleWebKit/537.36 (KHTML, like Gecko) Chrome/74.0.3729.131 Safari/537.36"",""on_chrome"":true,""on_mobile"":false,""language"":""en-US"",""screen_resolution"":[1440,900],""platform"":""MacIntel"",""timezone"":""Europe/Berlin""}","14","4853.08500000413","","","1558339099223","21","","Konstanz","[]","Konstanz","true","false","5422.214999998687"
"","html-voicekey-response","106","504744","0.0-4.102-0.102","1jtlba5vup147vw","{""user_agent"":""Mozilla/5.0 (Macintosh; Intel Mac OS X 10_14_4) AppleWebKit/537.36 (KHTML, like Gecko) Chrome/74.0.3729.131 Safari/537.36"",""on_chrome"":true,""on_mobile"":false,""language"":""en-US"",""screen_resolution"":[1440,900],""platform"":""MacIntel"",""timezone"":""Europe/Berlin""}","14","2553.519999995688","","","1558339105249","15","","Nürnberg","[]","Nürnberg","true","false","2979.3899999931455"
"","html-voicekey-response","107","515594","0.0-4.103-0.103","1jtlba5vup147vw","{""user_agent"":""Mozilla/5.0 (Macintosh; Intel Mac OS X 10_14_4) AppleWebKit/537.36 (KHTML, like Gecko) Chrome/74.0.3729.131 Safari/537.36"",""on_chrome"":true,""on_mobile"":false,""language"":""en-US"",""screen_resolution"":[1440,900],""platform"":""MacIntel"",""timezone"":""Europe/Berlin""}","14","6269.504999998235","","","1558339108832","3","","","[]","Ingolstadt","false","false","6845.434999995632"
"","html-voicekey-response","108","518254","0.0-4.104-0.104","1jtlba5vup147vw","{""user_agent"":""Mozilla/5.0 (Macintosh; Intel Mac OS X 10_14_4) AppleWebKit/537.36 (KHTML, like Gecko) Chrome/74.0.3729.131 Safari/537.36"",""on_chrome"":true,""on_mobile"":false,""language"":""en-US"",""screen_resolution"":[1440,900],""platform"":""MacIntel"",""timezone"":""Europe/Berlin""}","14","1613.5600000069012","","","1558339119684","8","","Gotha","[]","Gotha","true","false","2055.0700000021607"
"","html-voicekey-response","109","524955","0.0-4.105-0.105","1jtlba5vup147vw","{""user_agent"":""Mozilla/5.0 (Macintosh; Intel Mac OS X 10_14_4) AppleWebKit/537.36 (KHTML, like Gecko) Chrome/74.0.3729.131 Safari/537.36"",""on_chrome"":true,""on_mobile"":false,""language"":""en-US"",""screen_resolution"":[1440,900],""platform"":""MacIntel"",""timezone"":""Europe/Berlin""}","14","5670.874999990547","","","1558339122342","5","","Aachen","[]","Aachen","true","false","6095.709999994142"
"","html-voicekey-response","110","526878","0.0-4.106-0.106","1jtlba5vup147vw","{""user_agent"":""Mozilla/5.0 (Macintosh; Intel Mac OS X 10_14_4) AppleWebKit/537.36 (KHTML, like Gecko) Chrome/74.0.3729.131 Safari/537.36"",""on_chrome"":true,""on_mobile"":false,""language"":""en-US"",""screen_resolution"":[1440,900],""platform"":""MacIntel"",""timezone"":""Europe/Berlin""}","14","910.79000000339","","","1558339129044","6","","Dresden","[]","Dresden","true","false","1319.2549999948824"
"","html-voicekey-response","111","529612","0.0-4.107-0.107","1jtlba5vup147vw","{""user_agent"":""Mozilla/5.0 (Macintosh; Intel Mac OS X 10_14_4) AppleWebKit/537.36 (KHTML, like Gecko) Chrome/74.0.3729.131 Safari/537.36"",""on_chrome"":true,""on_mobile"":false,""language"":""en-US"",""screen_resolution"":[1440,900],""platform"":""MacIntel"",""timezone"":""Europe/Berlin""}","14","1771.1000000070549","","","1558339130967","4","","Würzburg","[]","Würzburg","true","false","2129.5200000022305"
"","html-voicekey-response","112","534078","0.0-4.108-0.108","1jtlba5vup147vw","{""user_agent"":""Mozilla/5.0 (Macintosh; Intel Mac OS X 10_14_4) AppleWebKit/537.36 (KHTML, like Gecko) Chrome/74.0.3729.131 Safari/537.36"",""on_chrome"":true,""on_mobile"":false,""language"":""en-US"",""screen_resolution"":[1440,900],""platform"":""MacIntel"",""timezone"":""Europe/Berlin""}","14","Infinity","","","1558339133701","21","","Konstanz","[]","Konstanz","true","false","3861.4099999977043"
"","html-voicekey-response","113","536003","0.0-4.109-0.109","1jtlba5vup147vw","{""user_agent"":""Mozilla/5.0 (Macintosh; Intel Mac OS X 10_14_4) AppleWebKit/537.36 (KHTML, like Gecko) Chrome/74.0.3729.131 Safari/537.36"",""on_chrome"":true,""on_mobile"":false,""language"":""en-US"",""screen_resolution"":[1440,900],""platform"":""MacIntel"",""timezone"":""Europe/Berlin""}","14","887.3350000011036","","","1558339138167","9","","München","[]","München","true","false","1320.704999990994"
"","html-voicekey-response","114","539020","0.0-4.110-0.110","1jtlba5vup147vw","{""user_agent"":""Mozilla/5.0 (Macintosh; Intel Mac OS X 10_14_4) AppleWebKit/537.36 (KHTML, like Gecko) Chrome/74.0.3729.131 Safari/537.36"",""on_chrome"":true,""on_mobile"":false,""language"":""en-US"",""screen_resolution"":[1440,900],""platform"":""MacIntel"",""timezone"":""Europe/Berlin""}","14","1886.994999987865","","","1558339140092","11","","Alfeld","[]","Alfeld","true","false","2412.449999988894"
"","html-voicekey-response","115","542753","0.0-4.111-0.111","1jtlba5vup147vw","{""user_agent"":""Mozilla/5.0 (Macintosh; Intel Mac OS X 10_14_4) AppleWebKit/537.36 (KHTML, like Gecko) Chrome/74.0.3729.131 Safari/537.36"",""on_chrome"":true,""on_mobile"":false,""language"":""en-US"",""screen_resolution"":[1440,900],""platform"":""MacIntel"",""timezone"":""Europe/Berlin""}","14","2603.0050000061515","","","1558339143109","10","","Heidelberg","[]","Heidelberg","true","false","3128.705000010086"
"","html-voicekey-response","116","546286","0.0-4.112-0.112","1jtlba5vup147vw","{""user_agent"":""Mozilla/5.0 (Macintosh; Intel Mac OS X 10_14_4) AppleWebKit/537.36 (KHTML, like Gecko) Chrome/74.0.3729.131 Safari/537.36"",""on_chrome"":true,""on_mobile"":false,""language"":""en-US"",""screen_resolution"":[1440,900],""platform"":""MacIntel"",""timezone"":""Europe/Berlin""}","14","2487.1749999964145","","","1558339146842","18","","Forchheim","[]","Forchheim","true","false","2928.794999999809"
"","html-voicekey-response","117","564183","0.0-4.113-0.113","1jtlba5vup147vw","{""user_agent"":""Mozilla/5.0 (Macintosh; Intel Mac OS X 10_14_4) AppleWebKit/537.36 (KHTML, like Gecko) Chrome/74.0.3729.131 Safari/537.36"",""on_chrome"":true,""on_mobile"":false,""language"":""en-US"",""screen_resolution"":[1440,900],""platform"":""MacIntel"",""timezone"":""Europe/Berlin""}","14","6366.70500000203","","","1558339150375","13","","","[]","Chemnitz","false","false","13892.27499999106"
"","html-voicekey-response","118","566612","0.0-4.114-0.114","1jtlba5vup147vw","{""user_agent"":""Mozilla/5.0 (Macintosh; Intel Mac OS X 10_14_4) AppleWebKit/537.36 (KHTML, like Gecko) Chrome/74.0.3729.131 Safari/537.36"",""on_chrome"":true,""on_mobile"":false,""language"":""en-US"",""screen_resolution"":[1440,900],""platform"":""MacIntel"",""timezone"":""Europe/Berlin""}","14","1398.4699999944773","","","1558339168273","21","","Konstanz","[]","Konstanz","true","false","1823.7599999993108"
"","html-voicekey-response","119","584828","0.0-4.115-0.115","1jtlba5vup147vw","{""user_agent"":""Mozilla/5.0 (Macintosh; Intel Mac OS X 10_14_4) AppleWebKit/537.36 (KHTML, like Gecko) Chrome/74.0.3729.131 Safari/537.36"",""on_chrome"":true,""on_mobile"":false,""language"":""en-US"",""screen_resolution"":[1440,900],""platform"":""MacIntel"",""timezone"":""Europe/Berlin""}","14","13102.145000006049","","","1558339170702","25","","","[]","Osnabrück","false","false","14211.200000005192"
"","html-voicekey-response","120","587525","0.0-4.116-0.116","1jtlba5vup147vw","{""user_agent"":""Mozilla/5.0 (Macintosh; Intel Mac OS X 10_14_4) AppleWebKit/537.36 (KHTML, like Gecko) Chrome/74.0.3729.131 Safari/537.36"",""on_chrome"":true,""on_mobile"":false,""language"":""en-US"",""screen_resolution"":[1440,900],""platform"":""MacIntel"",""timezone"":""Europe/Berlin""}","14","100","","","1558339188919","26","","Freiburg","[]","Freiburg","true","false","2091.070000009495"
"","html-voicekey-response","121","589458","0.0-4.117-0.117","1jtlba5vup147vw","{""user_agent"":""Mozilla/5.0 (Macintosh; Intel Mac OS X 10_14_4) AppleWebKit/537.36 (KHTML, like Gecko) Chrome/74.0.3729.131 Safari/537.36"",""on_chrome"":true,""on_mobile"":false,""language"":""en-US"",""screen_resolution"":[1440,900],""platform"":""MacIntel"",""timezone"":""Europe/Berlin""}","14","936.25999999661","","","1558339191615","7","","Erfurt","[]","Erfurt","true","false","1327.4050000036368"
"","html-voicekey-response","122","592626","0.0-4.118-0.118","1jtlba5vup147vw","{""user_agent"":""Mozilla/5.0 (Macintosh; Intel Mac OS X 10_14_4) AppleWebKit/537.36 (KHTML, like Gecko) Chrome/74.0.3729.131 Safari/537.36"",""on_chrome"":true,""on_mobile"":false,""language"":""en-US"",""screen_resolution"":[1440,900],""platform"":""MacIntel"",""timezone"":""Europe/Berlin""}","14","2120.7149999916787","","","1558339193548","14","","Potsdam","[]","Potsdam","true","false","2562.6049999991665"
"","html-voicekey-response","123","595200","0.0-4.119-0.119","1jtlba5vup147vw","{""user_agent"":""Mozilla/5.0 (Macintosh; Intel Mac OS X 10_14_4) AppleWebKit/537.36 (KHTML, like Gecko) Chrome/74.0.3729.131 Safari/537.36"",""on_chrome"":true,""on_mobile"":false,""language"":""en-US"",""screen_resolution"":[1440,900],""platform"":""MacIntel"",""timezone"":""Europe/Berlin""}","14","1543.2850000014064","","","1558339196716","12","","Dessau","[]","Dessau","true","false","1969.5099999953527"
"","html-voicekey-response","124","598183","0.0-4.120-0.120","1jtlba5vup147vw","{""user_agent"":""Mozilla/5.0 (Macintosh; Intel Mac OS X 10_14_4) AppleWebKit/537.36 (KHTML, like Gecko) Chrome/74.0.3729.131 Safari/537.36"",""on_chrome"":true,""on_mobile"":false,""language"":""en-US"",""screen_resolution"":[1440,900],""platform"":""MacIntel"",""timezone"":""Europe/Berlin""}","14","1919.5650000127266","","","1558339199290","18","","Forchheim","[]","Forchheim","true","false","2378.530000001774"
"","html-voicekey-response","125","613984","0.0-4.121-0.121","1jtlba5vup147vw","{""user_agent"":""Mozilla/5.0 (Macintosh; Intel Mac OS X 10_14_4) AppleWebKit/537.36 (KHTML, like Gecko) Chrome/74.0.3729.131 Safari/537.36"",""on_chrome"":true,""on_mobile"":false,""language"":""en-US"",""screen_resolution"":[1440,900],""platform"":""MacIntel"",""timezone"":""Europe/Berlin""}","14","11019.070000003767","","","1558339202273","21","","","[]","Konstanz","false","false","11794.724999999744"
"","html-voicekey-response","126","622682","0.0-4.122-0.122","1jtlba5vup147vw","{""user_agent"":""Mozilla/5.0 (Macintosh; Intel Mac OS X 10_14_4) AppleWebKit/537.36 (KHTML, like Gecko) Chrome/74.0.3729.131 Safari/537.36"",""on_chrome"":true,""on_mobile"":false,""language"":""en-US"",""screen_resolution"":[1440,900],""platform"":""MacIntel"",""timezone"":""Europe/Berlin""}","14","3866.6849999952597","","","1558339218074","25","","","[]","Osnabrück","false","false","4693.184999996447"
"","html-voicekey-response","127","624640","0.0-4.123-0.123","1jtlba5vup147vw","{""user_agent"":""Mozilla/5.0 (Macintosh; Intel Mac OS X 10_14_4) AppleWebKit/537.36 (KHTML, like Gecko) Chrome/74.0.3729.131 Safari/537.36"",""on_chrome"":true,""on_mobile"":false,""language"":""en-US"",""screen_resolution"":[1440,900],""platform"":""MacIntel"",""timezone"":""Europe/Berlin""}","14","852.1399999970803","","","1558339226773","21","","Konstanz","[]","Konstanz","true","false","1352.1249999903375"
"","html-voicekey-response","128","627806","0.0-4.124-0.124","1jtlba5vup147vw","{""user_agent"":""Mozilla/5.0 (Macintosh; Intel Mac OS X 10_14_4) AppleWebKit/537.36 (KHTML, like Gecko) Chrome/74.0.3729.131 Safari/537.36"",""on_chrome"":true,""on_mobile"":false,""language"":""en-US"",""screen_resolution"":[1440,900],""platform"":""MacIntel"",""timezone"":""Europe/Berlin""}","14","2085.8700000042795","","","1558339228730","3","","Ingolstadt","[]","Ingolstadt","true","false","2561.3000000012107"
"","html-voicekey-response","129","630823","0.0-4.125-0.125","1jtlba5vup147vw","{""user_agent"":""Mozilla/5.0 (Macintosh; Intel Mac OS X 10_14_4) AppleWebKit/537.36 (KHTML, like Gecko) Chrome/74.0.3729.131 Safari/537.36"",""on_chrome"":true,""on_mobile"":false,""language"":""en-US"",""screen_resolution"":[1440,900],""platform"":""MacIntel"",""timezone"":""Europe/Berlin""}","14","2002.7800000041957","","","1558339231897","5","","Aachen","[]","Aachen","true","false","2411.2400000012713"
"","html-voicekey-response","130","632739","0.0-4.126-0.126","1jtlba5vup147vw","{""user_agent"":""Mozilla/5.0 (Macintosh; Intel Mac OS X 10_14_4) AppleWebKit/537.36 (KHTML, like Gecko) Chrome/74.0.3729.131 Safari/537.36"",""on_chrome"":true,""on_mobile"":false,""language"":""en-US"",""screen_resolution"":[1440,900],""platform"":""MacIntel"",""timezone"":""Europe/Berlin""}","14","1051.704999999702","","","1558339234914","20","","Hamburg ","[]","Hamburg ","true","false","1310.9200000035344"
"","html-voicekey-response","131","634665","0.0-4.127-0.127","1jtlba5vup147vw","{""user_agent"":""Mozilla/5.0 (Macintosh; Intel Mac OS X 10_14_4) AppleWebKit/537.36 (KHTML, like Gecko) Chrome/74.0.3729.131 Safari/537.36"",""on_chrome"":true,""on_mobile"":false,""language"":""en-US"",""screen_resolution"":[1440,900],""platform"":""MacIntel"",""timezone"":""Europe/Berlin""}","14","902.5499999932712","","","1558339236830","19","","Frankfurt","[]","Frankfurt","true","false","1320.254999998724"
"","html-voicekey-response","132","638898","0.0-4.128-0.128","1jtlba5vup147vw","{""user_agent"":""Mozilla/5.0 (Macintosh; Intel Mac OS X 10_14_4) AppleWebKit/537.36 (KHTML, like Gecko) Chrome/74.0.3729.131 Safari/537.36"",""on_chrome"":true,""on_mobile"":false,""language"":""en-US"",""screen_resolution"":[1440,900],""platform"":""MacIntel"",""timezone"":""Europe/Berlin""}","14","1185.4050000054763","","","1558339238756","16","","Schwangau","[]","Schwangau","true","false","3627.2699999972247"
"","html-voicekey-response","133","644032","0.0-4.129-0.129","1jtlba5vup147vw","{""user_agent"":""Mozilla/5.0 (Macintosh; Intel Mac OS X 10_14_4) AppleWebKit/537.36 (KHTML, like Gecko) Chrome/74.0.3729.131 Safari/537.36"",""on_chrome"":true,""on_mobile"":false,""language"":""en-US"",""screen_resolution"":[1440,900],""platform"":""MacIntel"",""timezone"":""Europe/Berlin""}","14","4118.930000005848","","","1558339242989","17","","Leipzig","[]","Leipzig","true","false","4526.444999995874"
"","html-voicekey-response","134","646923","0.0-4.130-0.130","1jtlba5vup147vw","{""user_agent"":""Mozilla/5.0 (Macintosh; Intel Mac OS X 10_14_4) AppleWebKit/537.36 (KHTML, like Gecko) Chrome/74.0.3729.131 Safari/537.36"",""on_chrome"":true,""on_mobile"":false,""language"":""en-US"",""screen_resolution"":[1440,900],""platform"":""MacIntel"",""timezone"":""Europe/Berlin""}","14","100","","","1558339248122","21","","Konstanz","[]","Konstanz","true","false","2285.3500000055647"
"","html-voicekey-response","135","650006","0.0-4.131-0.131","1jtlba5vup147vw","{""user_agent"":""Mozilla/5.0 (Macintosh; Intel Mac OS X 10_14_4) AppleWebKit/537.36 (KHTML, like Gecko) Chrome/74.0.3729.131 Safari/537.36"",""on_chrome"":true,""on_mobile"":false,""language"":""en-US"",""screen_resolution"":[1440,900],""platform"":""MacIntel"",""timezone"":""Europe/Berlin""}","14","1901.3400000056486","","","1558339251014","13","","Chemnitz","[]","Chemnitz","true","false","2476.5800000022864"
"","html-voicekey-response","136","652555","0.0-4.132-0.132","1jtlba5vup147vw","{""user_agent"":""Mozilla/5.0 (Macintosh; Intel Mac OS X 10_14_4) AppleWebKit/537.36 (KHTML, like Gecko) Chrome/74.0.3729.131 Safari/537.36"",""on_chrome"":true,""on_mobile"":false,""language"":""en-US"",""screen_resolution"":[1440,900],""platform"":""MacIntel"",""timezone"":""Europe/Berlin""}","14","1554.115000000666","","","1558339254095","22","","Bamberg","[]","Bamberg","true","false","1945.594999997411"
"","html-voicekey-response","137","656790","0.0-4.133-0.133","1jtlba5vup147vw","{""user_agent"":""Mozilla/5.0 (Macintosh; Intel Mac OS X 10_14_4) AppleWebKit/537.36 (KHTML, like Gecko) Chrome/74.0.3729.131 Safari/537.36"",""on_chrome"":true,""on_mobile"":false,""language"":""en-US"",""screen_resolution"":[1440,900],""platform"":""MacIntel"",""timezone"":""Europe/Berlin""}","14","2852.9400000059745","","","1558339256647","28","","Regensburg","[]","Regensburg","true","true","3627.5450000102865"
"","html-voicekey-response","138","659167","0.0-4.134-0.134","1jtlba5vup147vw","{""user_agent"":""Mozilla/5.0 (Macintosh; Intel Mac OS X 10_14_4) AppleWebKit/537.36 (KHTML, like Gecko) Chrome/74.0.3729.131 Safari/537.36"",""on_chrome"":true,""on_mobile"":false,""language"":""en-US"",""screen_resolution"":[1440,900],""platform"":""MacIntel"",""timezone"":""Europe/Berlin""}","14","1312.7000000038884","","","1558339260881","29","","Jena","[]","Jena","true","true","1771.744999990915"
"","html-voicekey-response","139","661400","0.0-4.135-0.135","1jtlba5vup147vw","{""user_agent"":""Mozilla/5.0 (Macintosh; Intel Mac OS X 10_14_4) AppleWebKit/537.36 (KHTML, like Gecko) Chrome/74.0.3729.131 Safari/537.36"",""on_chrome"":true,""on_mobile"":false,""language"":""en-US"",""screen_resolution"":[1440,900],""platform"":""MacIntel"",""timezone"":""Europe/Berlin""}","14","969.0899999930756","","","1558339263258","28","","Regensburg","[]","Regensburg","true","false","1627.5400000013178"
"","html-voicekey-response","140","663201","0.0-4.136-0.136","1jtlba5vup147vw","{""user_agent"":""Mozilla/5.0 (Macintosh; Intel Mac OS X 10_14_4) AppleWebKit/537.36 (KHTML, like Gecko) Chrome/74.0.3729.131 Safari/537.36"",""on_chrome"":true,""on_mobile"":false,""language"":""en-US"",""screen_resolution"":[1440,900],""platform"":""MacIntel"",""timezone"":""Europe/Berlin""}","14","669.4999999979976","","","1558339265491","29","","Jena","[]","Jena","true","false","1195.175000000745"
"","html-voicekey-response","141","668268","0.0-4.137-0.137","1jtlba5vup147vw","{""user_agent"":""Mozilla/5.0 (Macintosh; Intel Mac OS X 10_14_4) AppleWebKit/537.36 (KHTML, like Gecko) Chrome/74.0.3729.131 Safari/537.36"",""on_chrome"":true,""on_mobile"":false,""language"":""en-US"",""screen_resolution"":[1440,900],""platform"":""MacIntel"",""timezone"":""Europe/Berlin""}","14","3666.750000012899","","","1558339267292","25","","Osnabrück","[]","Osnabrück","true","false","4459.2500000144355"
"","html-voicekey-response","142","671075","0.0-4.138-0.138","1jtlba5vup147vw","{""user_agent"":""Mozilla/5.0 (Macintosh; Intel Mac OS X 10_14_4) AppleWebKit/537.36 (KHTML, like Gecko) Chrome/74.0.3729.131 Safari/537.36"",""on_chrome"":true,""on_mobile"":false,""language"":""en-US"",""screen_resolution"":[1440,900],""platform"":""MacIntel"",""timezone"":""Europe/Berlin""}","14","1807.760000004992","","","1558339272360","18","","Forchheim","[]","Forchheim","true","false","2199.7800000099232"
"","html-voicekey-response","143","672958","0.0-4.139-0.139","1jtlba5vup147vw","{""user_agent"":""Mozilla/5.0 (Macintosh; Intel Mac OS X 10_14_4) AppleWebKit/537.36 (KHTML, like Gecko) Chrome/74.0.3729.131 Safari/537.36"",""on_chrome"":true,""on_mobile"":false,""language"":""en-US"",""screen_resolution"":[1440,900],""platform"":""MacIntel"",""timezone"":""Europe/Berlin""}","14","935.7600000019651","","","1558339275165","24","","Köln","[]","Köln","true","false","1277.1800000045914"
"","html-voicekey-response","144","675374","0.0-4.140-0.140","1jtlba5vup147vw","{""user_agent"":""Mozilla/5.0 (Macintosh; Intel Mac OS X 10_14_4) AppleWebKit/537.36 (KHTML, like Gecko) Chrome/74.0.3729.131 Safari/537.36"",""on_chrome"":true,""on_mobile"":false,""language"":""en-US"",""screen_resolution"":[1440,900],""platform"":""MacIntel"",""timezone"":""Europe/Berlin""}","14","1302.734999999148","","","1558339277049","30","","Bremen","[]","Bremen","true","true","1810.6399999960558"
"","html-voicekey-response","145","677891","0.0-4.141-0.141","1jtlba5vup147vw","{""user_agent"":""Mozilla/5.0 (Macintosh; Intel Mac OS X 10_14_4) AppleWebKit/537.36 (KHTML, like Gecko) Chrome/74.0.3729.131 Safari/537.36"",""on_chrome"":true,""on_mobile"":false,""language"":""en-US"",""screen_resolution"":[1440,900],""platform"":""MacIntel"",""timezone"":""Europe/Berlin""}","14","1402.2849999981468","","","1558339279465","23","","Stuttgart","[]","Stuttgart","true","false","1910.9500000049593"
"","html-voicekey-response","146","680165","0.0-4.142-0.142","1jtlba5vup147vw","{""user_agent"":""Mozilla/5.0 (Macintosh; Intel Mac OS X 10_14_4) AppleWebKit/537.36 (KHTML, like Gecko) Chrome/74.0.3729.131 Safari/537.36"",""on_chrome"":true,""on_mobile"":false,""language"":""en-US"",""screen_resolution"":[1440,900],""platform"":""MacIntel"",""timezone"":""Europe/Berlin""}","14","1176.4550000023796","","","1558339281982","30","","Bremen","[]","Bremen","true","false","1668.1149999931222"
"","html-voicekey-response","147","683182","0.0-4.143-0.143","1jtlba5vup147vw","{""user_agent"":""Mozilla/5.0 (Macintosh; Intel Mac OS X 10_14_4) AppleWebKit/537.36 (KHTML, like Gecko) Chrome/74.0.3729.131 Safari/537.36"",""on_chrome"":true,""on_mobile"":false,""language"":""en-US"",""screen_resolution"":[1440,900],""platform"":""MacIntel"",""timezone"":""Europe/Berlin""}","14","1936.2499999932247","","","1558339284255","25","","Osnabrück","[]","Osnabrück","true","false","2411.8599999928847"
"","html-voicekey-response","148","685248","0.0-4.144-0.144","1jtlba5vup147vw","{""user_agent"":""Mozilla/5.0 (Macintosh; Intel Mac OS X 10_14_4) AppleWebKit/537.36 (KHTML, like Gecko) Chrome/74.0.3729.131 Safari/537.36"",""on_chrome"":true,""on_mobile"":false,""language"":""en-US"",""screen_resolution"":[1440,900],""platform"":""MacIntel"",""timezone"":""Europe/Berlin""}","14","1034.4150000108407","","","1558339287274","17","","Leipzig","[]","Leipzig","true","false","1459.885000003851"
"","html-voicekey-response","149","706381","0.0-4.145-0.145","1jtlba5vup147vw","{""user_agent"":""Mozilla/5.0 (Macintosh; Intel Mac OS X 10_14_4) AppleWebKit/537.36 (KHTML, like Gecko) Chrome/74.0.3729.131 Safari/537.36"",""on_chrome"":true,""on_mobile"":false,""language"":""en-US"",""screen_resolution"":[1440,900],""platform"":""MacIntel"",""timezone"":""Europe/Berlin""}","14","16584.029999992556","","","1558339289340","28","","","[]","Regensburg","false","false","17126.524999999674"
"","html-voicekey-response","150","708435","0.0-4.146-0.146","1jtlba5vup147vw","{""user_agent"":""Mozilla/5.0 (Macintosh; Intel Mac OS X 10_14_4) AppleWebKit/537.36 (KHTML, like Gecko) Chrome/74.0.3729.131 Safari/537.36"",""on_chrome"":true,""on_mobile"":false,""language"":""en-US"",""screen_resolution"":[1440,900],""platform"":""MacIntel"",""timezone"":""Europe/Berlin""}","14","1004.7699999939417","","","1558339310473","29","","Jena","[]","Jena","true","false","1446.974999998929"
"","html-voicekey-response","151","711785","0.0-4.147-0.147","1jtlba5vup147vw","{""user_agent"":""Mozilla/5.0 (Macintosh; Intel Mac OS X 10_14_4) AppleWebKit/537.36 (KHTML, like Gecko) Chrome/74.0.3729.131 Safari/537.36"",""on_chrome"":true,""on_mobile"":false,""language"":""en-US"",""screen_resolution"":[1440,900],""platform"":""MacIntel"",""timezone"":""Europe/Berlin""}","14","2285.1249999892666","","","1558339312526","21","","Konstanz","[]","Konstanz","true","false","2744.6599999966566"
"","html-voicekey-response","152","713602","0.0-4.148-0.148","1jtlba5vup147vw","{""user_agent"":""Mozilla/5.0 (Macintosh; Intel Mac OS X 10_14_4) AppleWebKit/537.36 (KHTML, like Gecko) Chrome/74.0.3729.131 Safari/537.36"",""on_chrome"":true,""on_mobile"":false,""language"":""en-US"",""screen_resolution"":[1440,900],""platform"":""MacIntel"",""timezone"":""Europe/Berlin""}","14","849.8499999930849","","","1558339315877","30","","Bremen","[]","Bremen","true","false","1209.210000000894"
"","html-voicekey-response","153","720408","0.0-4.149-0.149","1jtlba5vup147vw","{""user_agent"":""Mozilla/5.0 (Macintosh; Intel Mac OS X 10_14_4) AppleWebKit/537.36 (KHTML, like Gecko) Chrome/74.0.3729.131 Safari/537.36"",""on_chrome"":true,""on_mobile"":false,""language"":""en-US"",""screen_resolution"":[1440,900],""platform"":""MacIntel"",""timezone"":""Europe/Berlin""}","14","5707.770000002556","","","1558339317694","25","","Osnabrück","[]","Osnabrück","true","false","6199.180000010529"
"","html-voicekey-response","154","722774","0.0-4.150-0.150","1jtlba5vup147vw","{""user_agent"":""Mozilla/5.0 (Macintosh; Intel Mac OS X 10_14_4) AppleWebKit/537.36 (KHTML, like Gecko) Chrome/74.0.3729.131 Safari/537.36"",""on_chrome"":true,""on_mobile"":false,""language"":""en-US"",""screen_resolution"":[1440,900],""platform"":""MacIntel"",""timezone"":""Europe/Berlin""}","14","1252.2100000004052","","","1558339324499","28","","Regensburg","[]","Regensburg","true","false","1760.2550000010524"
"","html-voicekey-response","155","725317","0.0-4.151-0.151","1jtlba5vup147vw","{""user_agent"":""Mozilla/5.0 (Macintosh; Intel Mac OS X 10_14_4) AppleWebKit/537.36 (KHTML, like Gecko) Chrome/74.0.3729.131 Safari/537.36"",""on_chrome"":true,""on_mobile"":false,""language"":""en-US"",""screen_resolution"":[1440,900],""platform"":""MacIntel"",""timezone"":""Europe/Berlin""}","14","1485.624999995553","","","1558339326866","15","","Nürnberg","[]","Nürnberg","true","false","1936.0750000050757"
"","html-voicekey-response","156","728234","0.0-4.152-0.152","1jtlba5vup147vw","{""user_agent"":""Mozilla/5.0 (Macintosh; Intel Mac OS X 10_14_4) AppleWebKit/537.36 (KHTML, like Gecko) Chrome/74.0.3729.131 Safari/537.36"",""on_chrome"":true,""on_mobile"":false,""language"":""en-US"",""screen_resolution"":[1440,900],""platform"":""MacIntel"",""timezone"":""Europe/Berlin""}","14","1817.0000000044006","","","1558339329409","25","","Osnabrück","[]","Osnabrück","true","false","2309.785000004922"
"","html-voicekey-response","157","746016","0.0-4.153-0.153","1jtlba5vup147vw","{""user_agent"":""Mozilla/5.0 (Macintosh; Intel Mac OS X 10_14_4) AppleWebKit/537.36 (KHTML, like Gecko) Chrome/74.0.3729.131 Safari/537.36"",""on_chrome"":true,""on_mobile"":false,""language"":""en-US"",""screen_resolution"":[1440,900],""platform"":""MacIntel"",""timezone"":""Europe/Berlin""}","14","13199.180000004917","","","1558339332325","27","","","[]","Tübingen","false","false","13775.175000002491"
"","html-voicekey-response","158","749066","0.0-4.154-0.154","1jtlba5vup147vw","{""user_agent"":""Mozilla/5.0 (Macintosh; Intel Mac OS X 10_14_4) AppleWebKit/537.36 (KHTML, like Gecko) Chrome/74.0.3729.131 Safari/537.36"",""on_chrome"":true,""on_mobile"":false,""language"":""en-US"",""screen_resolution"":[1440,900],""platform"":""MacIntel"",""timezone"":""Europe/Berlin""}","14","100","","","1558339350108","3","","Ingolstadt","[]","Ingolstadt","true","false","2443.375000002561"
"","html-voicekey-response","159","754551","0.0-4.155-0.155","1jtlba5vup147vw","{""user_agent"":""Mozilla/5.0 (Macintosh; Intel Mac OS X 10_14_4) AppleWebKit/537.36 (KHTML, like Gecko) Chrome/74.0.3729.131 Safari/537.36"",""on_chrome"":true,""on_mobile"":false,""language"":""en-US"",""screen_resolution"":[1440,900],""platform"":""MacIntel"",""timezone"":""Europe/Berlin""}","14","4367.304999986873","","","1558339353158","25","","Osnabrück","[]","Osnabrück","true","false","4874.904999989667"
"","html-voicekey-response","160","756424","0.0-4.156-0.156","1jtlba5vup147vw","{""user_agent"":""Mozilla/5.0 (Macintosh; Intel Mac OS X 10_14_4) AppleWebKit/537.36 (KHTML, like Gecko) Chrome/74.0.3729.131 Safari/537.36"",""on_chrome"":true,""on_mobile"":false,""language"":""en-US"",""screen_resolution"":[1440,900],""platform"":""MacIntel"",""timezone"":""Europe/Berlin""}","14","907.1550000024494","","","1558339358643","7","","Erfurt","[]","Erfurt","true","false","1266.844999991008"
"","html-voicekey-response","161","759457","0.0-4.157-0.157","1jtlba5vup147vw","{""user_agent"":""Mozilla/5.0 (Macintosh; Intel Mac OS X 10_14_4) AppleWebKit/537.36 (KHTML, like Gecko) Chrome/74.0.3729.131 Safari/537.36"",""on_chrome"":true,""on_mobile"":false,""language"":""en-US"",""screen_resolution"":[1440,900],""platform"":""MacIntel"",""timezone"":""Europe/Berlin""}","14","1917.1399999994087","","","1558339360516","10","","Heidelberg","[]","Heidelberg","true","false","2425.9750000055647"
"","html-voicekey-response","162","763174","0.0-4.158-0.158","1jtlba5vup147vw","{""user_agent"":""Mozilla/5.0 (Macintosh; Intel Mac OS X 10_14_4) AppleWebKit/537.36 (KHTML, like Gecko) Chrome/74.0.3729.131 Safari/537.36"",""on_chrome"":true,""on_mobile"":false,""language"":""en-US"",""screen_resolution"":[1440,900],""platform"":""MacIntel"",""timezone"":""Europe/Berlin""}","14","2584.815000003646","","","1558339363549","26","","Freiburg","[]","Freiburg","true","false","3110.180000003311"
"","html-voicekey-response","163","779806","0.0-4.159-0.159","1jtlba5vup147vw","{""user_agent"":""Mozilla/5.0 (Macintosh; Intel Mac OS X 10_14_4) AppleWebKit/537.36 (KHTML, like Gecko) Chrome/74.0.3729.131 Safari/537.36"",""on_chrome"":true,""on_mobile"":false,""language"":""en-US"",""screen_resolution"":[1440,900],""platform"":""MacIntel"",""timezone"":""Europe/Berlin""}","14","10983.640000000223","","","1558339367266","25","","","[]","Osnabrück","false","false","12624.669999990147"
"","html-voicekey-response","164","782772","0.0-4.160-0.160","1jtlba5vup147vw","{""user_agent"":""Mozilla/5.0 (Macintosh; Intel Mac OS X 10_14_4) AppleWebKit/537.36 (KHTML, like Gecko) Chrome/74.0.3729.131 Safari/537.36"",""on_chrome"":true,""on_mobile"":false,""language"":""en-US"",""screen_resolution"":[1440,900],""platform"":""MacIntel"",""timezone"":""Europe/Berlin""}","14","100","","","1558339383897","27","","Tübingen","[]","Tübingen","true","false","2359.8149999888847"
"","html-voicekey-response","165","784955","0.0-4.161-0.161","1jtlba5vup147vw","{""user_agent"":""Mozilla/5.0 (Macintosh; Intel Mac OS X 10_14_4) AppleWebKit/537.36 (KHTML, like Gecko) Chrome/74.0.3729.131 Safari/537.36"",""on_chrome"":true,""on_mobile"":false,""language"":""en-US"",""screen_resolution"":[1440,900],""platform"":""MacIntel"",""timezone"":""Europe/Berlin""}","14","1133.700000000163","","","1558339386864","25","","Osnabrück","[]","Osnabrück","true","false","1576.7250000062631"
"","html-voicekey-response","166","787831","0.0-4.162-0.162","1jtlba5vup147vw","{""user_agent"":""Mozilla/5.0 (Macintosh; Intel Mac OS X 10_14_4) AppleWebKit/537.36 (KHTML, like Gecko) Chrome/74.0.3729.131 Safari/537.36"",""on_chrome"":true,""on_mobile"":false,""language"":""en-US"",""screen_resolution"":[1440,900],""platform"":""MacIntel"",""timezone"":""Europe/Berlin""}","14","1875.4049999932527","","","1558339389048","18","","Forchheim","[]","Forchheim","true","false","2267.3950000025798"
"","html-voicekey-response","167","790030","0.0-4.163-0.163","1jtlba5vup147vw","{""user_agent"":""Mozilla/5.0 (Macintosh; Intel Mac OS X 10_14_4) AppleWebKit/537.36 (KHTML, like Gecko) Chrome/74.0.3729.131 Safari/537.36"",""on_chrome"":true,""on_mobile"":false,""language"":""en-US"",""screen_resolution"":[1440,900],""platform"":""MacIntel"",""timezone"":""Europe/Berlin""}","14","1150.3150000006194","","","1558339391923","25","","Osnabrück","[]","Osnabrück","true","false","1592.4200000008568"
"","html-voicekey-response","168","800464","0.0-4.164-0.164","1jtlba5vup147vw","{""user_agent"":""Mozilla/5.0 (Macintosh; Intel Mac OS X 10_14_4) AppleWebKit/537.36 (KHTML, like Gecko) Chrome/74.0.3729.131 Safari/537.36"",""on_chrome"":true,""on_mobile"":false,""language"":""en-US"",""screen_resolution"":[1440,900],""platform"":""MacIntel"",""timezone"":""Europe/Berlin""}","14","5383.100000000768","","","1558339394123","21","","","[]","Konstanz","false","false","6425.430000002962"
"","html-voicekey-response","169","806039","0.0-4.165-0.165","1jtlba5vup147vw","{""user_agent"":""Mozilla/5.0 (Macintosh; Intel Mac OS X 10_14_4) AppleWebKit/537.36 (KHTML, like Gecko) Chrome/74.0.3729.131 Safari/537.36"",""on_chrome"":true,""on_mobile"":false,""language"":""en-US"",""screen_resolution"":[1440,900],""platform"":""MacIntel"",""timezone"":""Europe/Berlin""}","14","2692.7050000029617","","","1558339404556","28","","Regensburg","[]","Regensburg","true","false","4968.064999993658"
"","html-voicekey-response","170","808062","0.0-4.166-0.166","1jtlba5vup147vw","{""user_agent"":""Mozilla/5.0 (Macintosh; Intel Mac OS X 10_14_4) AppleWebKit/537.36 (KHTML, like Gecko) Chrome/74.0.3729.131 Safari/537.36"",""on_chrome"":true,""on_mobile"":false,""language"":""en-US"",""screen_resolution"":[1440,900],""platform"":""MacIntel"",""timezone"":""Europe/Berlin""}","14","933.5950000039069","","","1558339410131","21","","Konstanz","[]","Konstanz","true","false","1415.8099999913247"
"","html-voicekey-response","171","809945","0.0-4.167-0.167","1jtlba5vup147vw","{""user_agent"":""Mozilla/5.0 (Macintosh; Intel Mac OS X 10_14_4) AppleWebKit/537.36 (KHTML, like Gecko) Chrome/74.0.3729.131 Safari/537.36"",""on_chrome"":true,""on_mobile"":false,""language"":""en-US"",""screen_resolution"":[1440,900],""platform"":""MacIntel"",""timezone"":""Europe/Berlin""}","14","833.3999999975553","","","1558339412155","29","","Jena","[]","Jena","true","false","1274.1600000008475"
"","html-voicekey-response","172","812212","0.0-4.168-0.168","1jtlba5vup147vw","{""user_agent"":""Mozilla/5.0 (Macintosh; Intel Mac OS X 10_14_4) AppleWebKit/537.36 (KHTML, like Gecko) Chrome/74.0.3729.131 Safari/537.36"",""on_chrome"":true,""on_mobile"":false,""language"":""en-US"",""screen_resolution"":[1440,900],""platform"":""MacIntel"",""timezone"":""Europe/Berlin""}","14","1166.8399999997114","","","1558339414037","30","","Bremen","[]","Bremen","true","false","1659.7099999926286"
"","html-voicekey-response","173","814761","0.0-4.169-0.169","1jtlba5vup147vw","{""user_agent"":""Mozilla/5.0 (Macintosh; Intel Mac OS X 10_14_4) AppleWebKit/537.36 (KHTML, like Gecko) Chrome/74.0.3729.131 Safari/537.36"",""on_chrome"":true,""on_mobile"":false,""language"":""en-US"",""screen_resolution"":[1440,900],""platform"":""MacIntel"",""timezone"":""Europe/Berlin""}","14","1467.3049999926939","","","1558339416305","26","","Freiburg","[]","Freiburg","true","false","1941.6249999922002"
