"value","trial_type","trial_index","time_elapsed","internal_node_id","subject","browser_info","participant_number","rt","responses","view_history","presentation_start_time","id","text","response","keypresses","answer","correct","study","experimenter_rt"
"","call-function","0","6","0.0-0.0","6z3euo9s2zb2tz9","{""user_agent"":""Mozilla/5.0 (Macintosh; Intel Mac OS X 10_14_4) AppleWebKit/537.36 (KHTML, like Gecko) Chrome/74.0.3729.157 Safari/537.36"",""on_chrome"":true,""on_mobile"":false,""language"":""en-US"",""screen_resolution"":[1440,900],""platform"":""MacIntel"",""timezone"":""Europe/Berlin""}","15","","","","","","","","","","","",""
"","survey-text","1","171412","0.0-1.0","6z3euo9s2zb2tz9","{""user_agent"":""Mozilla/5.0 (Macintosh; Intel Mac OS X 10_14_4) AppleWebKit/537.36 (KHTML, like Gecko) Chrome/74.0.3729.157 Safari/537.36"",""on_chrome"":true,""on_mobile"":false,""language"":""en-US"",""screen_resolution"":[1440,900],""platform"":""MacIntel"",""timezone"":""Europe/Berlin""}","15","171405","{""Q0"":""15""}","","","","","","","","","",""
"","instructions","2","297039","0.0-2.0","6z3euo9s2zb2tz9","{""user_agent"":""Mozilla/5.0 (Macintosh; Intel Mac OS X 10_14_4) AppleWebKit/537.36 (KHTML, like Gecko) Chrome/74.0.3729.157 Safari/537.36"",""on_chrome"":true,""on_mobile"":false,""language"":""en-US"",""screen_resolution"":[1440,900],""platform"":""MacIntel"",""timezone"":""Europe/Berlin""}","15","125626","","[{""page_index"":0,""viewing_time"":125626}]","","","","","","","","",""
"","call-function","3","297040","0.0-3.0","6z3euo9s2zb2tz9","{""user_agent"":""Mozilla/5.0 (Macintosh; Intel Mac OS X 10_14_4) AppleWebKit/537.36 (KHTML, like Gecko) Chrome/74.0.3729.157 Safari/537.36"",""on_chrome"":true,""on_mobile"":false,""language"":""en-US"",""screen_resolution"":[1440,900],""platform"":""MacIntel"",""timezone"":""Europe/Berlin""}","15","","","","","","","","","","","",""
"","html-voicekey-response","4","300615","0.0-4.0-0.0","6z3euo9s2zb2tz9","{""user_agent"":""Mozilla/5.0 (Macintosh; Intel Mac OS X 10_14_4) AppleWebKit/537.36 (KHTML, like Gecko) Chrome/74.0.3729.157 Safari/537.36"",""on_chrome"":true,""on_mobile"":false,""language"":""en-US"",""screen_resolution"":[1440,900],""platform"":""MacIntel"",""timezone"":""Europe/Berlin""}","15","1161.4899999997929","","","1558354594770","1","","Magdeburg","[]","Magdeburg","true","true","2972.7749999997322"
"","html-voicekey-response","5","304447","0.0-4.1-0.1","6z3euo9s2zb2tz9","{""user_agent"":""Mozilla/5.0 (Macintosh; Intel Mac OS X 10_14_4) AppleWebKit/537.36 (KHTML, like Gecko) Chrome/74.0.3729.157 Safari/537.36"",""on_chrome"":true,""on_mobile"":false,""language"":""en-US"",""screen_resolution"":[1440,900],""platform"":""MacIntel"",""timezone"":""Europe/Berlin""}","15","2636.765000000049","","","1558354598346","1","","Magdeburg","[]","Magdeburg","true","false","3229.2099999999627"
"","html-voicekey-response","6","307214","0.0-4.2-0.2","6z3euo9s2zb2tz9","{""user_agent"":""Mozilla/5.0 (Macintosh; Intel Mac OS X 10_14_4) AppleWebKit/537.36 (KHTML, like Gecko) Chrome/74.0.3729.157 Safari/537.36"",""on_chrome"":true,""on_mobile"":false,""language"":""en-US"",""screen_resolution"":[1440,900],""platform"":""MacIntel"",""timezone"":""Europe/Berlin""}","15","1656.3600000002539","","","1558354602177","2","","Berlin","[]","Berlin","true","true","2165.080000000249"
"","html-voicekey-response","7","310237","0.0-4.3-0.3","6z3euo9s2zb2tz9","{""user_agent"":""Mozilla/5.0 (Macintosh; Intel Mac OS X 10_14_4) AppleWebKit/537.36 (KHTML, like Gecko) Chrome/74.0.3729.157 Safari/537.36"",""on_chrome"":true,""on_mobile"":false,""language"":""en-US"",""screen_resolution"":[1440,900],""platform"":""MacIntel"",""timezone"":""Europe/Berlin""}","15","1872.5849999999396","","","1558354604944","2","","Berlin","[]","Berlin","true","false","2421.635000000184"
"","html-voicekey-response","8","313505","0.0-4.4-0.4","6z3euo9s2zb2tz9","{""user_agent"":""Mozilla/5.0 (Macintosh; Intel Mac OS X 10_14_4) AppleWebKit/537.36 (KHTML, like Gecko) Chrome/74.0.3729.157 Safari/537.36"",""on_chrome"":true,""on_mobile"":false,""language"":""en-US"",""screen_resolution"":[1440,900],""platform"":""MacIntel"",""timezone"":""Europe/Berlin""}","15","1590.080000000226","","","1558354607967","3","","Ingolstadt","[]","Ingolstadt","true","true","2666.225000000384"
"","html-voicekey-response","9","317021","0.0-4.5-0.5","6z3euo9s2zb2tz9","{""user_agent"":""Mozilla/5.0 (Macintosh; Intel Mac OS X 10_14_4) AppleWebKit/537.36 (KHTML, like Gecko) Chrome/74.0.3729.157 Safari/537.36"",""on_chrome"":true,""on_mobile"":false,""language"":""en-US"",""screen_resolution"":[1440,900],""platform"":""MacIntel"",""timezone"":""Europe/Berlin""}","15","1805.2849999997766","","","1558354611235","4","","Würzburg","[]","Würzburg","true","true","2913.78999999963"
"","html-voicekey-response","10","320890","0.0-4.6-0.6","6z3euo9s2zb2tz9","{""user_agent"":""Mozilla/5.0 (Macintosh; Intel Mac OS X 10_14_4) AppleWebKit/537.36 (KHTML, like Gecko) Chrome/74.0.3729.157 Safari/537.36"",""on_chrome"":true,""on_mobile"":false,""language"":""en-US"",""screen_resolution"":[1440,900],""platform"":""MacIntel"",""timezone"":""Europe/Berlin""}","15","2439.9150000001887","","","1558354614750","3","","Ingolstadt","[]","Ingolstadt","true","false","3265.7300000000396"
"","html-voicekey-response","11","324079","0.0-4.7-0.7","6z3euo9s2zb2tz9","{""user_agent"":""Mozilla/5.0 (Macintosh; Intel Mac OS X 10_14_4) AppleWebKit/537.36 (KHTML, like Gecko) Chrome/74.0.3729.157 Safari/537.36"",""on_chrome"":true,""on_mobile"":false,""language"":""en-US"",""screen_resolution"":[1440,900],""platform"":""MacIntel"",""timezone"":""Europe/Berlin""}","15","1729.6500000000583","","","1558354618619","4","","Würzburg","[]","Würzburg","true","false","2587.740000000398"
"","html-voicekey-response","12","326563","0.0-4.8-0.8","6z3euo9s2zb2tz9","{""user_agent"":""Mozilla/5.0 (Macintosh; Intel Mac OS X 10_14_4) AppleWebKit/537.36 (KHTML, like Gecko) Chrome/74.0.3729.157 Safari/537.36"",""on_chrome"":true,""on_mobile"":false,""language"":""en-US"",""screen_resolution"":[1440,900],""platform"":""MacIntel"",""timezone"":""Europe/Berlin""}","15","1172.5250000002911","","","1558354621809","5","","Aachen","[]","Aachen","true","true","1881.085000000021"
"","html-voicekey-response","13","329613","0.0-4.9-0.9","6z3euo9s2zb2tz9","{""user_agent"":""Mozilla/5.0 (Macintosh; Intel Mac OS X 10_14_4) AppleWebKit/537.36 (KHTML, like Gecko) Chrome/74.0.3729.157 Safari/537.36"",""on_chrome"":true,""on_mobile"":false,""language"":""en-US"",""screen_resolution"":[1440,900],""platform"":""MacIntel"",""timezone"":""Europe/Berlin""}","15","1421.8300000001095","","","1558354624293","6","","Dresden","[]","Dresden","true","true","2448.085000000021"
"","html-voicekey-response","14","336235","0.0-4.10-0.10","6z3euo9s2zb2tz9","{""user_agent"":""Mozilla/5.0 (Macintosh; Intel Mac OS X 10_14_4) AppleWebKit/537.36 (KHTML, like Gecko) Chrome/74.0.3729.157 Safari/537.36"",""on_chrome"":true,""on_mobile"":false,""language"":""en-US"",""screen_resolution"":[1440,900],""platform"":""MacIntel"",""timezone"":""Europe/Berlin""}","15","5370.899999999709","","","1558354627343","5","","Aachen","[]","Aachen","true","false","6020.294999999751"
"","html-voicekey-response","15","340318","0.0-4.11-0.11","6z3euo9s2zb2tz9","{""user_agent"":""Mozilla/5.0 (Macintosh; Intel Mac OS X 10_14_4) AppleWebKit/537.36 (KHTML, like Gecko) Chrome/74.0.3729.157 Safari/537.36"",""on_chrome"":true,""on_mobile"":false,""language"":""en-US"",""screen_resolution"":[1440,900],""platform"":""MacIntel"",""timezone"":""Europe/Berlin""}","15","2873.8650000003167","","","1558354633965","6","","Dresden","[]","Dresden","true","false","3481.5700000003562"
"","html-voicekey-response","16","343292","0.0-4.12-0.12","6z3euo9s2zb2tz9","{""user_agent"":""Mozilla/5.0 (Macintosh; Intel Mac OS X 10_14_4) AppleWebKit/537.36 (KHTML, like Gecko) Chrome/74.0.3729.157 Safari/537.36"",""on_chrome"":true,""on_mobile"":false,""language"":""en-US"",""screen_resolution"":[1440,900],""platform"":""MacIntel"",""timezone"":""Europe/Berlin""}","15","1730.820000000042","","","1558354638048","1","","Magdeburg","[]","Magdeburg","true","false","2373.109999999986"
"","html-voicekey-response","17","346077","0.0-4.13-0.13","6z3euo9s2zb2tz9","{""user_agent"":""Mozilla/5.0 (Macintosh; Intel Mac OS X 10_14_4) AppleWebKit/537.36 (KHTML, like Gecko) Chrome/74.0.3729.157 Safari/537.36"",""on_chrome"":true,""on_mobile"":false,""language"":""en-US"",""screen_resolution"":[1440,900],""platform"":""MacIntel"",""timezone"":""Europe/Berlin""}","15","1590.129999999865","","","1558354641022","7","","Erfurt","[]","Erfurt","true","true","2182.5249999997322"
"","html-voicekey-response","18","349393","0.0-4.14-0.14","6z3euo9s2zb2tz9","{""user_agent"":""Mozilla/5.0 (Macintosh; Intel Mac OS X 10_14_4) AppleWebKit/537.36 (KHTML, like Gecko) Chrome/74.0.3729.157 Safari/537.36"",""on_chrome"":true,""on_mobile"":false,""language"":""en-US"",""screen_resolution"":[1440,900],""platform"":""MacIntel"",""timezone"":""Europe/Berlin""}","15","1755.8999999999419","","","1558354643807","2","","Berlin","[]","Berlin","true","false","2714.469999999914"
"","html-voicekey-response","19","353960","0.0-4.15-0.15","6z3euo9s2zb2tz9","{""user_agent"":""Mozilla/5.0 (Macintosh; Intel Mac OS X 10_14_4) AppleWebKit/537.36 (KHTML, like Gecko) Chrome/74.0.3729.157 Safari/537.36"",""on_chrome"":true,""on_mobile"":false,""language"":""en-US"",""screen_resolution"":[1440,900],""platform"":""MacIntel"",""timezone"":""Europe/Berlin""}","15","3355.1149999996765","","","1558354647123","7","","Erfurt","[]","Erfurt","true","false","3964.2450000001118"
"","html-voicekey-response","20","357070","0.0-4.16-0.16","6z3euo9s2zb2tz9","{""user_agent"":""Mozilla/5.0 (Macintosh; Intel Mac OS X 10_14_4) AppleWebKit/537.36 (KHTML, like Gecko) Chrome/74.0.3729.157 Safari/537.36"",""on_chrome"":true,""on_mobile"":false,""language"":""en-US"",""screen_resolution"":[1440,900],""platform"":""MacIntel"",""timezone"":""Europe/Berlin""}","15","1817.360000000312","","","1558354651690","8","","Gotha","[]","Gotha","true","true","2509.2600000003004"
"","html-voicekey-response","21","359671","0.0-4.17-0.17","6z3euo9s2zb2tz9","{""user_agent"":""Mozilla/5.0 (Macintosh; Intel Mac OS X 10_14_4) AppleWebKit/537.36 (KHTML, like Gecko) Chrome/74.0.3729.157 Safari/537.36"",""on_chrome"":true,""on_mobile"":false,""language"":""en-US"",""screen_resolution"":[1440,900],""platform"":""MacIntel"",""timezone"":""Europe/Berlin""}","15","1457.189999999921","","","1558354654800","9","","München","[]","München","true","true","1999.2600000000093"
"","html-voicekey-response","22","367136","0.0-4.18-0.18","6z3euo9s2zb2tz9","{""user_agent"":""Mozilla/5.0 (Macintosh; Intel Mac OS X 10_14_4) AppleWebKit/537.36 (KHTML, like Gecko) Chrome/74.0.3729.157 Safari/537.36"",""on_chrome"":true,""on_mobile"":false,""language"":""en-US"",""screen_resolution"":[1440,900],""platform"":""MacIntel"",""timezone"":""Europe/Berlin""}","15","6205.185000000149","","","1558354657401","8","","Gotha","[]","Gotha","true","false","6862.845000000147"
"","html-voicekey-response","23","370014","0.0-4.19-0.19","6z3euo9s2zb2tz9","{""user_agent"":""Mozilla/5.0 (Macintosh; Intel Mac OS X 10_14_4) AppleWebKit/537.36 (KHTML, like Gecko) Chrome/74.0.3729.157 Safari/537.36"",""on_chrome"":true,""on_mobile"":false,""language"":""en-US"",""screen_resolution"":[1440,900],""platform"":""MacIntel"",""timezone"":""Europe/Berlin""}","15","1817.4799999999582","","","1558354664866","9","","München","[]","München","true","false","2276.4699999997392"
"","html-voicekey-response","24","372814","0.0-4.20-0.20","6z3euo9s2zb2tz9","{""user_agent"":""Mozilla/5.0 (Macintosh; Intel Mac OS X 10_14_4) AppleWebKit/537.36 (KHTML, like Gecko) Chrome/74.0.3729.157 Safari/537.36"",""on_chrome"":true,""on_mobile"":false,""language"":""en-US"",""screen_resolution"":[1440,900],""platform"":""MacIntel"",""timezone"":""Europe/Berlin""}","15","1673.5199999996462","","","1558354667744","3","","Ingolstadt","[]","Ingolstadt","true","false","2198.6499999997905"
"","html-voicekey-response","25","375515","0.0-4.21-0.21","6z3euo9s2zb2tz9","{""user_agent"":""Mozilla/5.0 (Macintosh; Intel Mac OS X 10_14_4) AppleWebKit/537.36 (KHTML, like Gecko) Chrome/74.0.3729.157 Safari/537.36"",""on_chrome"":true,""on_mobile"":false,""language"":""en-US"",""screen_resolution"":[1440,900],""platform"":""MacIntel"",""timezone"":""Europe/Berlin""}","15","1289.2450000002632","","","1558354670545","4","","Würzburg","[]","Würzburg","true","false","2098.560000000405"
"","html-voicekey-response","26","381266","0.0-4.22-0.22","6z3euo9s2zb2tz9","{""user_agent"":""Mozilla/5.0 (Macintosh; Intel Mac OS X 10_14_4) AppleWebKit/537.36 (KHTML, like Gecko) Chrome/74.0.3729.157 Safari/537.36"",""on_chrome"":true,""on_mobile"":false,""language"":""en-US"",""screen_resolution"":[1440,900],""platform"":""MacIntel"",""timezone"":""Europe/Berlin""}","15","4573.1899999999205","","","1558354673245","5","","Aachen","[]","Aachen","true","false","5148.2900000000955"
"","html-voicekey-response","27","384122","0.0-4.23-0.23","6z3euo9s2zb2tz9","{""user_agent"":""Mozilla/5.0 (Macintosh; Intel Mac OS X 10_14_4) AppleWebKit/537.36 (KHTML, like Gecko) Chrome/74.0.3729.157 Safari/537.36"",""on_chrome"":true,""on_mobile"":false,""language"":""en-US"",""screen_resolution"":[1440,900],""platform"":""MacIntel"",""timezone"":""Europe/Berlin""}","15","1694.1599999998348","","","1558354678997","10","","Heidelberg","[]","Heidelberg","true","true","2252.364999999816"
"","html-voicekey-response","28","387005","0.0-4.24-0.24","6z3euo9s2zb2tz9","{""user_agent"":""Mozilla/5.0 (Macintosh; Intel Mac OS X 10_14_4) AppleWebKit/537.36 (KHTML, like Gecko) Chrome/74.0.3729.157 Safari/537.36"",""on_chrome"":true,""on_mobile"":false,""language"":""en-US"",""screen_resolution"":[1440,900],""platform"":""MacIntel"",""timezone"":""Europe/Berlin""}","15","100","","","1558354681852","6","","Dresden","[]","Dresden","true","false","2280.7749999997322"
"","html-voicekey-response","29","396290","0.0-4.25-0.25","6z3euo9s2zb2tz9","{""user_agent"":""Mozilla/5.0 (Macintosh; Intel Mac OS X 10_14_4) AppleWebKit/537.36 (KHTML, like Gecko) Chrome/74.0.3729.157 Safari/537.36"",""on_chrome"":true,""on_mobile"":false,""language"":""en-US"",""screen_resolution"":[1440,900],""platform"":""MacIntel"",""timezone"":""Europe/Berlin""}","15","4338.680000000144","","","1558354684735","10","","","[]","Heidelberg","false","false","5281.304999999993"
"","html-voicekey-response","30","400382","0.0-4.26-0.26","6z3euo9s2zb2tz9","{""user_agent"":""Mozilla/5.0 (Macintosh; Intel Mac OS X 10_14_4) AppleWebKit/537.36 (KHTML, like Gecko) Chrome/74.0.3729.157 Safari/537.36"",""on_chrome"":true,""on_mobile"":false,""language"":""en-US"",""screen_resolution"":[1440,900],""platform"":""MacIntel"",""timezone"":""Europe/Berlin""}","15","2830.0299999998883","","","1558354694021","7","","Erfurt","[]","Erfurt","true","false","3488.4849999998114"
"","html-voicekey-response","31","403901","0.0-4.27-0.27","6z3euo9s2zb2tz9","{""user_agent"":""Mozilla/5.0 (Macintosh; Intel Mac OS X 10_14_4) AppleWebKit/537.36 (KHTML, like Gecko) Chrome/74.0.3729.157 Safari/537.36"",""on_chrome"":true,""on_mobile"":false,""language"":""en-US"",""screen_resolution"":[1440,900],""platform"":""MacIntel"",""timezone"":""Europe/Berlin""}","15","1589.5149999999326","","","1558354698112","11","","Alfeld","[]","Alfeld","true","true","2914.890000000014"
"","html-voicekey-response","32","407972","0.0-4.28-0.28","6z3euo9s2zb2tz9","{""user_agent"":""Mozilla/5.0 (Macintosh; Intel Mac OS X 10_14_4) AppleWebKit/537.36 (KHTML, like Gecko) Chrome/74.0.3729.157 Safari/537.36"",""on_chrome"":true,""on_mobile"":false,""language"":""en-US"",""screen_resolution"":[1440,900],""platform"":""MacIntel"",""timezone"":""Europe/Berlin""}","15","2175.6249999996858","","","1558354701632","8","","Gotha","[]","Gotha","true","false","3467.899999999616"
"","html-voicekey-response","33","412588","0.0-4.29-0.29","6z3euo9s2zb2tz9","{""user_agent"":""Mozilla/5.0 (Macintosh; Intel Mac OS X 10_14_4) AppleWebKit/537.36 (KHTML, like Gecko) Chrome/74.0.3729.157 Safari/537.36"",""on_chrome"":true,""on_mobile"":false,""language"":""en-US"",""screen_resolution"":[1440,900],""platform"":""MacIntel"",""timezone"":""Europe/Berlin""}","15","2555.619999999972","","","1558354705702","11","","Alfeld","[]","Alfeld","true","false","4014.264999999781"
"","html-voicekey-response","34","415446","0.0-4.30-0.30","6z3euo9s2zb2tz9","{""user_agent"":""Mozilla/5.0 (Macintosh; Intel Mac OS X 10_14_4) AppleWebKit/537.36 (KHTML, like Gecko) Chrome/74.0.3729.157 Safari/537.36"",""on_chrome"":true,""on_mobile"":false,""language"":""en-US"",""screen_resolution"":[1440,900],""platform"":""MacIntel"",""timezone"":""Europe/Berlin""}","15","1373.504999999865","","","1558354710318","12","","Dessau","[]","Dessau","true","true","2256.8400000000256"
"","html-voicekey-response","35","419863","0.0-4.31-0.31","6z3euo9s2zb2tz9","{""user_agent"":""Mozilla/5.0 (Macintosh; Intel Mac OS X 10_14_4) AppleWebKit/537.36 (KHTML, like Gecko) Chrome/74.0.3729.157 Safari/537.36"",""on_chrome"":true,""on_mobile"":false,""language"":""en-US"",""screen_resolution"":[1440,900],""platform"":""MacIntel"",""timezone"":""Europe/Berlin""}","15","2921.6100000001957","","","1558354713178","5","","Aachen","[]","Aachen","true","false","3813.744999999937"
"","html-voicekey-response","36","423147","0.0-4.32-0.32","6z3euo9s2zb2tz9","{""user_agent"":""Mozilla/5.0 (Macintosh; Intel Mac OS X 10_14_4) AppleWebKit/537.36 (KHTML, like Gecko) Chrome/74.0.3729.157 Safari/537.36"",""on_chrome"":true,""on_mobile"":false,""language"":""en-US"",""screen_resolution"":[1440,900],""platform"":""MacIntel"",""timezone"":""Europe/Berlin""}","15","1788.8350000001142","","","1558354717593","12","","Dessau","[]","Dessau","true","false","2681.7799999999115"
"","html-voicekey-response","37","425654","0.0-4.33-0.33","6z3euo9s2zb2tz9","{""user_agent"":""Mozilla/5.0 (Macintosh; Intel Mac OS X 10_14_4) AppleWebKit/537.36 (KHTML, like Gecko) Chrome/74.0.3729.157 Safari/537.36"",""on_chrome"":true,""on_mobile"":false,""language"":""en-US"",""screen_resolution"":[1440,900],""platform"":""MacIntel"",""timezone"":""Europe/Berlin""}","15","1139.0699999999838","","","1558354720877","9","","München","[]","München","true","false","1905.720000000205"
"","html-voicekey-response","38","428304","0.0-4.34-0.34","6z3euo9s2zb2tz9","{""user_agent"":""Mozilla/5.0 (Macintosh; Intel Mac OS X 10_14_4) AppleWebKit/537.36 (KHTML, like Gecko) Chrome/74.0.3729.157 Safari/537.36"",""on_chrome"":true,""on_mobile"":false,""language"":""en-US"",""screen_resolution"":[1440,900],""platform"":""MacIntel"",""timezone"":""Europe/Berlin""}","15","1038.2450000000304","","","1558354723385","13","","Chemnitz","[]","Chemnitz","true","true","2047.355000000156"
"","html-voicekey-response","39","431137","0.0-4.35-0.35","6z3euo9s2zb2tz9","{""user_agent"":""Mozilla/5.0 (Macintosh; Intel Mac OS X 10_14_4) AppleWebKit/537.36 (KHTML, like Gecko) Chrome/74.0.3729.157 Safari/537.36"",""on_chrome"":true,""on_mobile"":false,""language"":""en-US"",""screen_resolution"":[1440,900],""platform"":""MacIntel"",""timezone"":""Europe/Berlin""}","15","1172.8900000001654","","","1558354726034","14","","Potsdam","[]","Potsdam","true","true","2231.3200000003562"
"","html-voicekey-response","40","434604","0.0-4.36-0.36","6z3euo9s2zb2tz9","{""user_agent"":""Mozilla/5.0 (Macintosh; Intel Mac OS X 10_14_4) AppleWebKit/537.36 (KHTML, like Gecko) Chrome/74.0.3729.157 Safari/537.36"",""on_chrome"":true,""on_mobile"":false,""language"":""en-US"",""screen_resolution"":[1440,900],""platform"":""MacIntel"",""timezone"":""Europe/Berlin""}","15","2156.094999999716","","","1558354728866","13","","Chemnitz","[]","Chemnitz","true","false","2865.945000000065"
"","html-voicekey-response","41","437176","0.0-4.37-0.37","6z3euo9s2zb2tz9","{""user_agent"":""Mozilla/5.0 (Macintosh; Intel Mac OS X 10_14_4) AppleWebKit/537.36 (KHTML, like Gecko) Chrome/74.0.3729.157 Safari/537.36"",""on_chrome"":true,""on_mobile"":false,""language"":""en-US"",""screen_resolution"":[1440,900],""platform"":""MacIntel"",""timezone"":""Europe/Berlin""}","15","1011.4500000002212","","","1558354732335","14","","Potsdam","[]","Potsdam","true","false","1969.890000000305"
"","html-voicekey-response","42","440509","0.0-4.38-0.38","6z3euo9s2zb2tz9","{""user_agent"":""Mozilla/5.0 (Macintosh; Intel Mac OS X 10_14_4) AppleWebKit/537.36 (KHTML, like Gecko) Chrome/74.0.3729.157 Safari/537.36"",""on_chrome"":true,""on_mobile"":false,""language"":""en-US"",""screen_resolution"":[1440,900],""platform"":""MacIntel"",""timezone"":""Europe/Berlin""}","15","1905.4649999996532","","","1558354734907","10","","Heidelberg","[]","Heidelberg","true","false","2731.1449999997276"
"","html-voicekey-response","43","443342","0.0-4.39-0.39","6z3euo9s2zb2tz9","{""user_agent"":""Mozilla/5.0 (Macintosh; Intel Mac OS X 10_14_4) AppleWebKit/537.36 (KHTML, like Gecko) Chrome/74.0.3729.157 Safari/537.36"",""on_chrome"":true,""on_mobile"":false,""language"":""en-US"",""screen_resolution"":[1440,900],""platform"":""MacIntel"",""timezone"":""Europe/Berlin""}","15","1372.2300000002492","","","1558354738240","7","","Erfurt","[]","Erfurt","true","false","2229.8700000001118"
"","html-voicekey-response","44","446143","0.0-4.40-0.40","6z3euo9s2zb2tz9","{""user_agent"":""Mozilla/5.0 (Macintosh; Intel Mac OS X 10_14_4) AppleWebKit/537.36 (KHTML, like Gecko) Chrome/74.0.3729.157 Safari/537.36"",""on_chrome"":true,""on_mobile"":false,""language"":""en-US"",""screen_resolution"":[1440,900],""platform"":""MacIntel"",""timezone"":""Europe/Berlin""}","15","1339.3149999999791","","","1558354741072","15","","Nürnberg","[]","Nürnberg","true","true","2198.3700000000536"
"","html-voicekey-response","45","449033","0.0-4.41-0.41","6z3euo9s2zb2tz9","{""user_agent"":""Mozilla/5.0 (Macintosh; Intel Mac OS X 10_14_4) AppleWebKit/537.36 (KHTML, like Gecko) Chrome/74.0.3729.157 Safari/537.36"",""on_chrome"":true,""on_mobile"":false,""language"":""en-US"",""screen_resolution"":[1440,900],""platform"":""MacIntel"",""timezone"":""Europe/Berlin""}","15","1647.0799999995857","","","1558354743873","5","","Aachen","[]","Aachen","true","false","2288.7200000000303"
"","html-voicekey-response","46","453299","0.0-4.42-0.42","6z3euo9s2zb2tz9","{""user_agent"":""Mozilla/5.0 (Macintosh; Intel Mac OS X 10_14_4) AppleWebKit/537.36 (KHTML, like Gecko) Chrome/74.0.3729.157 Safari/537.36"",""on_chrome"":true,""on_mobile"":false,""language"":""en-US"",""screen_resolution"":[1440,900],""platform"":""MacIntel"",""timezone"":""Europe/Berlin""}","15","2869.975000000361","","","1558354746766","15","","Nürnberg","[]","Nürnberg","true","false","3661.6100000001024"
"","html-voicekey-response","47","457007","0.0-4.43-0.43","6z3euo9s2zb2tz9","{""user_agent"":""Mozilla/5.0 (Macintosh; Intel Mac OS X 10_14_4) AppleWebKit/537.36 (KHTML, like Gecko) Chrome/74.0.3729.157 Safari/537.36"",""on_chrome"":true,""on_mobile"":false,""language"":""en-US"",""screen_resolution"":[1440,900],""platform"":""MacIntel"",""timezone"":""Europe/Berlin""}","15","1990.0799999998767","","","1558354751029","16","","Schwangau","[]","Schwangau","true","true","3105.5999999998603"
"","html-voicekey-response","48","460490","0.0-4.44-0.44","6z3euo9s2zb2tz9","{""user_agent"":""Mozilla/5.0 (Macintosh; Intel Mac OS X 10_14_4) AppleWebKit/537.36 (KHTML, like Gecko) Chrome/74.0.3729.157 Safari/537.36"",""on_chrome"":true,""on_mobile"":false,""language"":""en-US"",""screen_resolution"":[1440,900],""platform"":""MacIntel"",""timezone"":""Europe/Berlin""}","15","2138.610000000254","","","1558354754737","11","","Alfeld","[]","Alfeld","true","false","2881.5500000000466"
"","html-voicekey-response","49","464407","0.0-4.45-0.45","6z3euo9s2zb2tz9","{""user_agent"":""Mozilla/5.0 (Macintosh; Intel Mac OS X 10_14_4) AppleWebKit/537.36 (KHTML, like Gecko) Chrome/74.0.3729.157 Safari/537.36"",""on_chrome"":true,""on_mobile"":false,""language"":""en-US"",""screen_resolution"":[1440,900],""platform"":""MacIntel"",""timezone"":""Europe/Berlin""}","15","2538.890000000107","","","1558354758221","16","","Schwangau","[]","Schwangau","true","false","3314.7200000003213"
"","html-voicekey-response","50","467207","0.0-4.46-0.46","6z3euo9s2zb2tz9","{""user_agent"":""Mozilla/5.0 (Macintosh; Intel Mac OS X 10_14_4) AppleWebKit/537.36 (KHTML, like Gecko) Chrome/74.0.3729.157 Safari/537.36"",""on_chrome"":true,""on_mobile"":false,""language"":""en-US"",""screen_resolution"":[1440,900],""platform"":""MacIntel"",""timezone"":""Europe/Berlin""}","15","1438.3000000001398","","","1558354762138","17","","Leipzig","[]","Leipzig","true","true","2196.8900000001886"
"","html-voicekey-response","51","469834","0.0-4.47-0.47","6z3euo9s2zb2tz9","{""user_agent"":""Mozilla/5.0 (Macintosh; Intel Mac OS X 10_14_4) AppleWebKit/537.36 (KHTML, like Gecko) Chrome/74.0.3729.157 Safari/537.36"",""on_chrome"":true,""on_mobile"":false,""language"":""en-US"",""screen_resolution"":[1440,900],""platform"":""MacIntel"",""timezone"":""Europe/Berlin""}","15","1499.6549999999465","","","1558354764938","12","","Dessau","[]","Dessau","true","false","2024.0449999996927"
"","html-voicekey-response","52","472768","0.0-4.48-0.48","6z3euo9s2zb2tz9","{""user_agent"":""Mozilla/5.0 (Macintosh; Intel Mac OS X 10_14_4) AppleWebKit/537.36 (KHTML, like Gecko) Chrome/74.0.3729.157 Safari/537.36"",""on_chrome"":true,""on_mobile"":false,""language"":""en-US"",""screen_resolution"":[1440,900],""platform"":""MacIntel"",""timezone"":""Europe/Berlin""}","15","1572.1799999999116","","","1558354767564","17","","Leipzig","[]","Leipzig","true","false","2331.5849999998463"
"","html-voicekey-response","53","475785","0.0-4.49-0.49","6z3euo9s2zb2tz9","{""user_agent"":""Mozilla/5.0 (Macintosh; Intel Mac OS X 10_14_4) AppleWebKit/537.36 (KHTML, like Gecko) Chrome/74.0.3729.157 Safari/537.36"",""on_chrome"":true,""on_mobile"":false,""language"":""en-US"",""screen_resolution"":[1440,900],""platform"":""MacIntel"",""timezone"":""Europe/Berlin""}","15","1588.1949999996345","","","1558354770498","18","","Forchheim","[]","Forchheim","true","true","2414.589999999851"
"","html-voicekey-response","54","496468","0.0-4.50-0.50","6z3euo9s2zb2tz9","{""user_agent"":""Mozilla/5.0 (Macintosh; Intel Mac OS X 10_14_4) AppleWebKit/537.36 (KHTML, like Gecko) Chrome/74.0.3729.157 Safari/537.36"",""on_chrome"":true,""on_mobile"":false,""language"":""en-US"",""screen_resolution"":[1440,900],""platform"":""MacIntel"",""timezone"":""Europe/Berlin""}","15","15388.340000000293","","","1558354773515","13","","","[]","Chemnitz","false","false","16680.17499999999"
"","html-voicekey-response","55","509336","0.0-4.51-0.51","6z3euo9s2zb2tz9","{""user_agent"":""Mozilla/5.0 (Macintosh; Intel Mac OS X 10_14_4) AppleWebKit/537.36 (KHTML, like Gecko) Chrome/74.0.3729.157 Safari/537.36"",""on_chrome"":true,""on_mobile"":false,""language"":""en-US"",""screen_resolution"":[1440,900],""platform"":""MacIntel"",""timezone"":""Europe/Berlin""}","15","7857.739999999792","","","1558354794198","18","","","[]","Forchheim","false","false","8866.024999999849"
"","html-voicekey-response","56","512377","0.0-4.52-0.52","6z3euo9s2zb2tz9","{""user_agent"":""Mozilla/5.0 (Macintosh; Intel Mac OS X 10_14_4) AppleWebKit/537.36 (KHTML, like Gecko) Chrome/74.0.3729.157 Safari/537.36"",""on_chrome"":true,""on_mobile"":false,""language"":""en-US"",""screen_resolution"":[1440,900],""platform"":""MacIntel"",""timezone"":""Europe/Berlin""}","15","1679.2499999999768","","","1558354807067","14","","Potsdam","[]","Potsdam","true","false","2437.774999999907"
"","html-voicekey-response","57","521577","0.0-4.53-0.53","6z3euo9s2zb2tz9","{""user_agent"":""Mozilla/5.0 (Macintosh; Intel Mac OS X 10_14_4) AppleWebKit/537.36 (KHTML, like Gecko) Chrome/74.0.3729.157 Safari/537.36"",""on_chrome"":true,""on_mobile"":false,""language"":""en-US"",""screen_resolution"":[1440,900],""platform"":""MacIntel"",""timezone"":""Europe/Berlin""}","15","3756.3100000000327","","","1558354810106","15","","","[]","Nürnberg","false","false","5198.15000000014"
"","html-voicekey-response","58","528021","0.0-4.54-0.54","6z3euo9s2zb2tz9","{""user_agent"":""Mozilla/5.0 (Macintosh; Intel Mac OS X 10_14_4) AppleWebKit/537.36 (KHTML, like Gecko) Chrome/74.0.3729.157 Safari/537.36"",""on_chrome"":true,""on_mobile"":false,""language"":""en-US"",""screen_resolution"":[1440,900],""platform"":""MacIntel"",""timezone"":""Europe/Berlin""}","15","5066.575000000104","","","1558354819307","16","","Schwangau","[]","Schwangau","true","false","5842.640000000305"
"","html-voicekey-response","59","530829","0.0-4.55-0.55","6z3euo9s2zb2tz9","{""user_agent"":""Mozilla/5.0 (Macintosh; Intel Mac OS X 10_14_4) AppleWebKit/537.36 (KHTML, like Gecko) Chrome/74.0.3729.157 Safari/537.36"",""on_chrome"":true,""on_mobile"":false,""language"":""en-US"",""screen_resolution"":[1440,900],""platform"":""MacIntel"",""timezone"":""Europe/Berlin""}","15","1562.8150000000373","","","1558354825752","5","","Aachen","[]","Aachen","true","false","2205.445000000065"
"","html-voicekey-response","60","533428","0.0-4.56-0.56","6z3euo9s2zb2tz9","{""user_agent"":""Mozilla/5.0 (Macintosh; Intel Mac OS X 10_14_4) AppleWebKit/537.36 (KHTML, like Gecko) Chrome/74.0.3729.157 Safari/537.36"",""on_chrome"":true,""on_mobile"":false,""language"":""en-US"",""screen_resolution"":[1440,900],""platform"":""MacIntel"",""timezone"":""Europe/Berlin""}","15","1505.4999999996276","","","1558354828559","17","","Leipzig","[]","Leipzig","true","false","1996.7699999997858"
"","html-voicekey-response","61","536411","0.0-4.57-0.57","6z3euo9s2zb2tz9","{""user_agent"":""Mozilla/5.0 (Macintosh; Intel Mac OS X 10_14_4) AppleWebKit/537.36 (KHTML, like Gecko) Chrome/74.0.3729.157 Safari/537.36"",""on_chrome"":true,""on_mobile"":false,""language"":""en-US"",""screen_resolution"":[1440,900],""platform"":""MacIntel"",""timezone"":""Europe/Berlin""}","15","1839.2800000000047","","","1558354831158","13","","Chemnitz","[]","Chemnitz","true","false","2381.030000000028"
"","html-voicekey-response","62","539047","0.0-4.58-0.58","6z3euo9s2zb2tz9","{""user_agent"":""Mozilla/5.0 (Macintosh; Intel Mac OS X 10_14_4) AppleWebKit/537.36 (KHTML, like Gecko) Chrome/74.0.3729.157 Safari/537.36"",""on_chrome"":true,""on_mobile"":false,""language"":""en-US"",""screen_resolution"":[1440,900],""platform"":""MacIntel"",""timezone"":""Europe/Berlin""}","15","1539.7200000000653","","","1558354834141","7","","Erfurt","[]","Erfurt","true","false","2032.0900000000838"
"","html-voicekey-response","63","542219","0.0-4.59-0.59","6z3euo9s2zb2tz9","{""user_agent"":""Mozilla/5.0 (Macintosh; Intel Mac OS X 10_14_4) AppleWebKit/537.36 (KHTML, like Gecko) Chrome/74.0.3729.157 Safari/537.36"",""on_chrome"":true,""on_mobile"":false,""language"":""en-US"",""screen_resolution"":[1440,900],""platform"":""MacIntel"",""timezone"":""Europe/Berlin""}","15","1960.5050000003307","","","1558354836778","19","","Frankfurt","[]","Frankfurt","true","true","2569.3900000001304"
"","html-voicekey-response","64","544651","0.0-4.60-0.60","6z3euo9s2zb2tz9","{""user_agent"":""Mozilla/5.0 (Macintosh; Intel Mac OS X 10_14_4) AppleWebKit/537.36 (KHTML, like Gecko) Chrome/74.0.3729.157 Safari/537.36"",""on_chrome"":true,""on_mobile"":false,""language"":""en-US"",""screen_resolution"":[1440,900],""platform"":""MacIntel"",""timezone"":""Europe/Berlin""}","15","1055.4899999999675","","","1558354839949","20","","Hamburg ","[]","Hamburg ","true","true","1830.9149999999208"
"","html-voicekey-response","65","547602","0.0-4.61-0.61","6z3euo9s2zb2tz9","{""user_agent"":""Mozilla/5.0 (Macintosh; Intel Mac OS X 10_14_4) AppleWebKit/537.36 (KHTML, like Gecko) Chrome/74.0.3729.157 Safari/537.36"",""on_chrome"":true,""on_mobile"":false,""language"":""en-US"",""screen_resolution"":[1440,900],""platform"":""MacIntel"",""timezone"":""Europe/Berlin""}","15","1724.5049999999815","","","1558354842381","19","","Frankfurt","[]","Frankfurt","true","false","2348.6999999999534"
"","html-voicekey-response","66","549521","0.0-4.62-0.62","6z3euo9s2zb2tz9","{""user_agent"":""Mozilla/5.0 (Macintosh; Intel Mac OS X 10_14_4) AppleWebKit/537.36 (KHTML, like Gecko) Chrome/74.0.3729.157 Safari/537.36"",""on_chrome"":true,""on_mobile"":false,""language"":""en-US"",""screen_resolution"":[1440,900],""platform"":""MacIntel"",""timezone"":""Europe/Berlin""}","15","839.0949999997159","","","1558354845332","20","","Hamburg ","[]","Hamburg ","true","false","1314.869999999646"
"","html-voicekey-response","67","566644","0.0-4.63-0.63","6z3euo9s2zb2tz9","{""user_agent"":""Mozilla/5.0 (Macintosh; Intel Mac OS X 10_14_4) AppleWebKit/537.36 (KHTML, like Gecko) Chrome/74.0.3729.157 Safari/537.36"",""on_chrome"":true,""on_mobile"":false,""language"":""en-US"",""screen_resolution"":[1440,900],""platform"":""MacIntel"",""timezone"":""Europe/Berlin""}","15","12259.999999999976","","","1558354847252","15","","","[]","Nürnberg","false","false","13119.544999999925"
"","html-voicekey-response","68","570152","0.0-4.64-0.64","6z3euo9s2zb2tz9","{""user_agent"":""Mozilla/5.0 (Macintosh; Intel Mac OS X 10_14_4) AppleWebKit/537.36 (KHTML, like Gecko) Chrome/74.0.3729.157 Safari/537.36"",""on_chrome"":true,""on_mobile"":false,""language"":""en-US"",""screen_resolution"":[1440,900],""platform"":""MacIntel"",""timezone"":""Europe/Berlin""}","15","2314.2900000001305","","","1558354864374","18","","Forchheim","[]","Forchheim","true","false","2907.2450000003446"
"","html-voicekey-response","69","578085","0.0-4.65-0.65","6z3euo9s2zb2tz9","{""user_agent"":""Mozilla/5.0 (Macintosh; Intel Mac OS X 10_14_4) AppleWebKit/537.36 (KHTML, like Gecko) Chrome/74.0.3729.157 Safari/537.36"",""on_chrome"":true,""on_mobile"":false,""language"":""en-US"",""screen_resolution"":[1440,900],""platform"":""MacIntel"",""timezone"":""Europe/Berlin""}","15","2754.7400000002003","","","1558354867883","16","","","[]","Schwangau","false","false","3929.9650000003166"
"","html-voicekey-response","70","580808","0.0-4.66-0.66","6z3euo9s2zb2tz9","{""user_agent"":""Mozilla/5.0 (Macintosh; Intel Mac OS X 10_14_4) AppleWebKit/537.36 (KHTML, like Gecko) Chrome/74.0.3729.157 Safari/537.36"",""on_chrome"":true,""on_mobile"":false,""language"":""en-US"",""screen_resolution"":[1440,900],""platform"":""MacIntel"",""timezone"":""Europe/Berlin""}","15","1527.7499999999768","","","1558354875815","8","","Gotha","[]","Gotha","true","false","2120.3549999999814"
"","html-voicekey-response","71","591674","0.0-4.67-0.67","6z3euo9s2zb2tz9","{""user_agent"":""Mozilla/5.0 (Macintosh; Intel Mac OS X 10_14_4) AppleWebKit/537.36 (KHTML, like Gecko) Chrome/74.0.3729.157 Safari/537.36"",""on_chrome"":true,""on_mobile"":false,""language"":""en-US"",""screen_resolution"":[1440,900],""platform"":""MacIntel"",""timezone"":""Europe/Berlin""}","15","5371.974999999953","","","1558354878538","15","","","[]","Nürnberg","false","false","6864.820000000298"
"","html-voicekey-response","72","594219","0.0-4.68-0.68","6z3euo9s2zb2tz9","{""user_agent"":""Mozilla/5.0 (Macintosh; Intel Mac OS X 10_14_4) AppleWebKit/537.36 (KHTML, like Gecko) Chrome/74.0.3729.157 Safari/537.36"",""on_chrome"":true,""on_mobile"":false,""language"":""en-US"",""screen_resolution"":[1440,900],""platform"":""MacIntel"",""timezone"":""Europe/Berlin""}","15","1300.0900000000606","","","1558354889404","19","","Frankfurt","[]","Frankfurt","true","false","1942.6800000001676"
"","html-voicekey-response","73","597068","0.0-4.69-0.69","6z3euo9s2zb2tz9","{""user_agent"":""Mozilla/5.0 (Macintosh; Intel Mac OS X 10_14_4) AppleWebKit/537.36 (KHTML, like Gecko) Chrome/74.0.3729.157 Safari/537.36"",""on_chrome"":true,""on_mobile"":false,""language"":""en-US"",""screen_resolution"":[1440,900],""platform"":""MacIntel"",""timezone"":""Europe/Berlin""}","15","1505.419999999786","","","1558354891950","20","","Hamburg ","[]","Hamburg ","true","false","2246.829999999609"
"","html-voicekey-response","74","600024","0.0-4.70-0.70","6z3euo9s2zb2tz9","{""user_agent"":""Mozilla/5.0 (Macintosh; Intel Mac OS X 10_14_4) AppleWebKit/537.36 (KHTML, like Gecko) Chrome/74.0.3729.157 Safari/537.36"",""on_chrome"":true,""on_mobile"":false,""language"":""en-US"",""screen_resolution"":[1440,900],""platform"":""MacIntel"",""timezone"":""Europe/Berlin""}","15","1660.6450000002283","","","1558354894799","2","","Berlin","[]","Berlin","true","false","2353.5700000001816"
"","html-voicekey-response","75","602807","0.0-4.71-0.71","6z3euo9s2zb2tz9","{""user_agent"":""Mozilla/5.0 (Macintosh; Intel Mac OS X 10_14_4) AppleWebKit/537.36 (KHTML, like Gecko) Chrome/74.0.3729.157 Safari/537.36"",""on_chrome"":true,""on_mobile"":false,""language"":""en-US"",""screen_resolution"":[1440,900],""platform"":""MacIntel"",""timezone"":""Europe/Berlin""}","15","1605.9050000001212","","","1558354897755","16","","Schwangau","[]","Schwangau","true","false","2180.830000000191"
"","html-voicekey-response","76","606424","0.0-4.72-0.72","6z3euo9s2zb2tz9","{""user_agent"":""Mozilla/5.0 (Macintosh; Intel Mac OS X 10_14_4) AppleWebKit/537.36 (KHTML, like Gecko) Chrome/74.0.3729.157 Safari/537.36"",""on_chrome"":true,""on_mobile"":false,""language"":""en-US"",""screen_resolution"":[1440,900],""platform"":""MacIntel"",""timezone"":""Europe/Berlin""}","15","2456.469999999949","","","1558354900537","15","","Nürnberg","[]","Nürnberg","true","false","3014.9500000001863"
"","html-voicekey-response","77","608992","0.0-4.73-0.73","6z3euo9s2zb2tz9","{""user_agent"":""Mozilla/5.0 (Macintosh; Intel Mac OS X 10_14_4) AppleWebKit/537.36 (KHTML, like Gecko) Chrome/74.0.3729.157 Safari/537.36"",""on_chrome"":true,""on_mobile"":false,""language"":""en-US"",""screen_resolution"":[1440,900],""platform"":""MacIntel"",""timezone"":""Europe/Berlin""}","15","1256.2399999999675","","","1558354904155","5","","Aachen","[]","Aachen","true","false","1963.4999999997672"
"","html-voicekey-response","78","612230","0.0-4.74-0.74","6z3euo9s2zb2tz9","{""user_agent"":""Mozilla/5.0 (Macintosh; Intel Mac OS X 10_14_4) AppleWebKit/537.36 (KHTML, like Gecko) Chrome/74.0.3729.157 Safari/537.36"",""on_chrome"":true,""on_mobile"":false,""language"":""en-US"",""screen_resolution"":[1440,900],""platform"":""MacIntel"",""timezone"":""Europe/Berlin""}","15","2078.0550000001444","","","1558354906722","1","","Magdeburg","[]","Magdeburg","true","false","2636.3500000002095"
"","html-voicekey-response","79","614881","0.0-4.75-0.75","6z3euo9s2zb2tz9","{""user_agent"":""Mozilla/5.0 (Macintosh; Intel Mac OS X 10_14_4) AppleWebKit/537.36 (KHTML, like Gecko) Chrome/74.0.3729.157 Safari/537.36"",""on_chrome"":true,""on_mobile"":false,""language"":""en-US"",""screen_resolution"":[1440,900],""platform"":""MacIntel"",""timezone"":""Europe/Berlin""}","15","1440.1999999999302","","","1558354909960","13","","Chemnitz","[]","Chemnitz","true","false","2047.2900000000373"
"","html-voicekey-response","80","618947","0.0-4.76-0.76","6z3euo9s2zb2tz9","{""user_agent"":""Mozilla/5.0 (Macintosh; Intel Mac OS X 10_14_4) AppleWebKit/537.36 (KHTML, like Gecko) Chrome/74.0.3729.157 Safari/537.36"",""on_chrome"":true,""on_mobile"":false,""language"":""en-US"",""screen_resolution"":[1440,900],""platform"":""MacIntel"",""timezone"":""Europe/Berlin""}","15","1773.189999999688","","","1558354912611","21","","Konstanz","[]","Konstanz","true","true","3464.349999999744"
"","html-voicekey-response","81","622005","0.0-4.77-0.77","6z3euo9s2zb2tz9","{""user_agent"":""Mozilla/5.0 (Macintosh; Intel Mac OS X 10_14_4) AppleWebKit/537.36 (KHTML, like Gecko) Chrome/74.0.3729.157 Safari/537.36"",""on_chrome"":true,""on_mobile"":false,""language"":""en-US"",""screen_resolution"":[1440,900],""platform"":""MacIntel"",""timezone"":""Europe/Berlin""}","15","1513.910000000475","","","1558354916677","22","","Bamberg","[]","Bamberg","true","true","2456.0500000002794"
"","html-voicekey-response","82","624572","0.0-4.78-0.78","6z3euo9s2zb2tz9","{""user_agent"":""Mozilla/5.0 (Macintosh; Intel Mac OS X 10_14_4) AppleWebKit/537.36 (KHTML, like Gecko) Chrome/74.0.3729.157 Safari/537.36"",""on_chrome"":true,""on_mobile"":false,""language"":""en-US"",""screen_resolution"":[1440,900],""platform"":""MacIntel"",""timezone"":""Europe/Berlin""}","15","938.5900000000605","","","1558354919735","21","","Konstanz","[]","Konstanz","true","false","1963.9000000002561"
"","html-voicekey-response","83","626988","0.0-4.79-0.79","6z3euo9s2zb2tz9","{""user_agent"":""Mozilla/5.0 (Macintosh; Intel Mac OS X 10_14_4) AppleWebKit/537.36 (KHTML, like Gecko) Chrome/74.0.3729.157 Safari/537.36"",""on_chrome"":true,""on_mobile"":false,""language"":""en-US"",""screen_resolution"":[1440,900],""platform"":""MacIntel"",""timezone"":""Europe/Berlin""}","15","1172.0950000001817","","","1558354922302","22","","Bamberg","[]","Bamberg","true","false","1814.4699999997392"
"","html-voicekey-response","84","629873","0.0-4.80-0.80","6z3euo9s2zb2tz9","{""user_agent"":""Mozilla/5.0 (Macintosh; Intel Mac OS X 10_14_4) AppleWebKit/537.36 (KHTML, like Gecko) Chrome/74.0.3729.157 Safari/537.36"",""on_chrome"":true,""on_mobile"":false,""language"":""en-US"",""screen_resolution"":[1440,900],""platform"":""MacIntel"",""timezone"":""Europe/Berlin""}","15","1538.6049999999582","","","1558354924719","15","","Nürnberg","[]","Nürnberg","true","false","2281.730000000098"
"","html-voicekey-response","85","632611","0.0-4.81-0.81","6z3euo9s2zb2tz9","{""user_agent"":""Mozilla/5.0 (Macintosh; Intel Mac OS X 10_14_4) AppleWebKit/537.36 (KHTML, like Gecko) Chrome/74.0.3729.157 Safari/537.36"",""on_chrome"":true,""on_mobile"":false,""language"":""en-US"",""screen_resolution"":[1440,900],""platform"":""MacIntel"",""timezone"":""Europe/Berlin""}","15","1476.7500000000932","","","1558354927604","23","","Stuttgart","[]","Stuttgart","true","true","2135.4650000002002"
"","html-voicekey-response","86","634845","0.0-4.82-0.82","6z3euo9s2zb2tz9","{""user_agent"":""Mozilla/5.0 (Macintosh; Intel Mac OS X 10_14_4) AppleWebKit/537.36 (KHTML, like Gecko) Chrome/74.0.3729.157 Safari/537.36"",""on_chrome"":true,""on_mobile"":false,""language"":""en-US"",""screen_resolution"":[1440,900],""platform"":""MacIntel"",""timezone"":""Europe/Berlin""}","15","1005.0049999997485","","","1558354930342","24","","Köln","[]","Köln","true","true","1630.5649999999441"
"","html-voicekey-response","87","637077","0.0-4.83-0.83","6z3euo9s2zb2tz9","{""user_agent"":""Mozilla/5.0 (Macintosh; Intel Mac OS X 10_14_4) AppleWebKit/537.36 (KHTML, like Gecko) Chrome/74.0.3729.157 Safari/537.36"",""on_chrome"":true,""on_mobile"":false,""language"":""en-US"",""screen_resolution"":[1440,900],""platform"":""MacIntel"",""timezone"":""Europe/Berlin""}","15","954.3899999996414","","","1558354932575","23","","Stuttgart","[]","Stuttgart","true","false","1629.9749999997439"
"","html-voicekey-response","88","639494","0.0-4.84-0.84","6z3euo9s2zb2tz9","{""user_agent"":""Mozilla/5.0 (Macintosh; Intel Mac OS X 10_14_4) AppleWebKit/537.36 (KHTML, like Gecko) Chrome/74.0.3729.157 Safari/537.36"",""on_chrome"":true,""on_mobile"":false,""language"":""en-US"",""screen_resolution"":[1440,900],""platform"":""MacIntel"",""timezone"":""Europe/Berlin""}","15","1156.5049999997486","","","1558354934807","24","","Köln","[]","Köln","true","false","1815.219999999972"
"","html-voicekey-response","89","656719","0.0-4.85-0.85","6z3euo9s2zb2tz9","{""user_agent"":""Mozilla/5.0 (Macintosh; Intel Mac OS X 10_14_4) AppleWebKit/537.36 (KHTML, like Gecko) Chrome/74.0.3729.157 Safari/537.36"",""on_chrome"":true,""on_mobile"":false,""language"":""en-US"",""screen_resolution"":[1440,900],""platform"":""MacIntel"",""timezone"":""Europe/Berlin""}","15","12395.734999999846","","","1558354937225","11","","","[]","Alfeld","false","false","13221.224999999744"
"","html-voicekey-response","90","659678","0.0-4.86-0.86","6z3euo9s2zb2tz9","{""user_agent"":""Mozilla/5.0 (Macintosh; Intel Mac OS X 10_14_4) AppleWebKit/537.36 (KHTML, like Gecko) Chrome/74.0.3729.157 Safari/537.36"",""on_chrome"":true,""on_mobile"":false,""language"":""en-US"",""screen_resolution"":[1440,900],""platform"":""MacIntel"",""timezone"":""Europe/Berlin""}","15","1364.5300000001212","","","1558354954450","25","","Osnabrück","[]","Osnabrück","true","true","2356.5999999999767"
"","html-voicekey-response","91","662245","0.0-4.87-0.87","6z3euo9s2zb2tz9","{""user_agent"":""Mozilla/5.0 (Macintosh; Intel Mac OS X 10_14_4) AppleWebKit/537.36 (KHTML, like Gecko) Chrome/74.0.3729.157 Safari/537.36"",""on_chrome"":true,""on_mobile"":false,""language"":""en-US"",""screen_resolution"":[1440,900],""platform"":""MacIntel"",""timezone"":""Europe/Berlin""}","15","1488.689999999921","","","1558354957409","16","","Schwangau","[]","Schwangau","true","false","1964.2699999999022"
"","html-voicekey-response","92","664896","0.0-4.88-0.88","6z3euo9s2zb2tz9","{""user_agent"":""Mozilla/5.0 (Macintosh; Intel Mac OS X 10_14_4) AppleWebKit/537.36 (KHTML, like Gecko) Chrome/74.0.3729.157 Safari/537.36"",""on_chrome"":true,""on_mobile"":false,""language"":""en-US"",""screen_resolution"":[1440,900],""platform"":""MacIntel"",""timezone"":""Europe/Berlin""}","15","100","","","1558354959975","25","","Osnabrück","[]","Osnabrück","true","false","2047.3550000000978"
"","html-voicekey-response","93","670686","0.0-4.89-0.89","6z3euo9s2zb2tz9","{""user_agent"":""Mozilla/5.0 (Macintosh; Intel Mac OS X 10_14_4) AppleWebKit/537.36 (KHTML, like Gecko) Chrome/74.0.3729.157 Safari/537.36"",""on_chrome"":true,""on_mobile"":false,""language"":""en-US"",""screen_resolution"":[1440,900],""platform"":""MacIntel"",""timezone"":""Europe/Berlin""}","15","4229.369999999855","","","1558354962626","3","","Ingolstadt","[]","Ingolstadt","true","false","5187.4599999996135"
"","html-voicekey-response","94","673587","0.0-4.90-0.90","6z3euo9s2zb2tz9","{""user_agent"":""Mozilla/5.0 (Macintosh; Intel Mac OS X 10_14_4) AppleWebKit/537.36 (KHTML, like Gecko) Chrome/74.0.3729.157 Safari/537.36"",""on_chrome"":true,""on_mobile"":false,""language"":""en-US"",""screen_resolution"":[1440,900],""platform"":""MacIntel"",""timezone"":""Europe/Berlin""}","15","1522.820000000042","","","1558354968416","15","","Nürnberg","[]","Nürnberg","true","false","2297.344999999972"
"","html-voicekey-response","95","695626","0.0-4.91-0.91","6z3euo9s2zb2tz9","{""user_agent"":""Mozilla/5.0 (Macintosh; Intel Mac OS X 10_14_4) AppleWebKit/537.36 (KHTML, like Gecko) Chrome/74.0.3729.157 Safari/537.36"",""on_chrome"":true,""on_mobile"":false,""language"":""en-US"",""screen_resolution"":[1440,900],""platform"":""MacIntel"",""timezone"":""Europe/Berlin""}","15","17245.099999999955","","","1558354971317","21","","","[]","Konstanz","false","false","18037.405000000028"
"","html-voicekey-response","96","717742","0.0-4.92-0.92","6z3euo9s2zb2tz9","{""user_agent"":""Mozilla/5.0 (Macintosh; Intel Mac OS X 10_14_4) AppleWebKit/537.36 (KHTML, like Gecko) Chrome/74.0.3729.157 Safari/537.36"",""on_chrome"":true,""on_mobile"":false,""language"":""en-US"",""screen_resolution"":[1440,900],""platform"":""MacIntel"",""timezone"":""Europe/Berlin""}","15","16937.91000000001","","","1558354993357","22","","","[]","Bamberg","false","false","18113.144999999902"
"","html-voicekey-response","97","721421","0.0-4.93-0.93","6z3euo9s2zb2tz9","{""user_agent"":""Mozilla/5.0 (Macintosh; Intel Mac OS X 10_14_4) AppleWebKit/537.36 (KHTML, like Gecko) Chrome/74.0.3729.157 Safari/537.36"",""on_chrome"":true,""on_mobile"":false,""language"":""en-US"",""screen_resolution"":[1440,900],""platform"":""MacIntel"",""timezone"":""Europe/Berlin""}","15","2269.7799999998883","","","1558355015472","23","","Stuttgart","[]","Stuttgart","true","false","3077.909999999916"
"","html-voicekey-response","98","723755","0.0-4.94-0.94","6z3euo9s2zb2tz9","{""user_agent"":""Mozilla/5.0 (Macintosh; Intel Mac OS X 10_14_4) AppleWebKit/537.36 (KHTML, like Gecko) Chrome/74.0.3729.157 Safari/537.36"",""on_chrome"":true,""on_mobile"":false,""language"":""en-US"",""screen_resolution"":[1440,900],""platform"":""MacIntel"",""timezone"":""Europe/Berlin""}","15","1072.0749999999302","","","1558355019152","24","","Köln","[]","Köln","true","false","1731.324999999837"
"","html-voicekey-response","99","728363","0.0-4.95-0.95","6z3euo9s2zb2tz9","{""user_agent"":""Mozilla/5.0 (Macintosh; Intel Mac OS X 10_14_4) AppleWebKit/537.36 (KHTML, like Gecko) Chrome/74.0.3729.157 Safari/537.36"",""on_chrome"":true,""on_mobile"":false,""language"":""en-US"",""screen_resolution"":[1440,900],""platform"":""MacIntel"",""timezone"":""Europe/Berlin""}","15","3096.069999999809","","","1558355021486","25","","Osnabrück","[]","Osnabrück","true","false","4005.3099999999395"
"","html-voicekey-response","100","742380","0.0-4.96-0.96","6z3euo9s2zb2tz9","{""user_agent"":""Mozilla/5.0 (Macintosh; Intel Mac OS X 10_14_4) AppleWebKit/537.36 (KHTML, like Gecko) Chrome/74.0.3729.157 Safari/537.36"",""on_chrome"":true,""on_mobile"":false,""language"":""en-US"",""screen_resolution"":[1440,900],""platform"":""MacIntel"",""timezone"":""Europe/Berlin""}","15","9322.34999999972","","","1558355026093","21","","","[]","Konstanz","false","false","10013.444999999483"
"","html-voicekey-response","101","745906","0.0-4.97-0.97","6z3euo9s2zb2tz9","{""user_agent"":""Mozilla/5.0 (Macintosh; Intel Mac OS X 10_14_4) AppleWebKit/537.36 (KHTML, like Gecko) Chrome/74.0.3729.157 Safari/537.36"",""on_chrome"":true,""on_mobile"":false,""language"":""en-US"",""screen_resolution"":[1440,900],""platform"":""MacIntel"",""timezone"":""Europe/Berlin""}","15","2230.5499999995577","","","1558355040110","15","","Nürnberg","[]","Nürnberg","true","false","2923.704999999609"
"","html-voicekey-response","102","756298","0.0-4.98-0.98","6z3euo9s2zb2tz9","{""user_agent"":""Mozilla/5.0 (Macintosh; Intel Mac OS X 10_14_4) AppleWebKit/537.36 (KHTML, like Gecko) Chrome/74.0.3729.157 Safari/537.36"",""on_chrome"":true,""on_mobile"":false,""language"":""en-US"",""screen_resolution"":[1440,900],""platform"":""MacIntel"",""timezone"":""Europe/Berlin""}","15","5487.579999999818","","","1558355043637","22","","","[]","Bamberg","false","false","6390.139999999898"
"","html-voicekey-response","103","764466","0.0-4.99-0.99","6z3euo9s2zb2tz9","{""user_agent"":""Mozilla/5.0 (Macintosh; Intel Mac OS X 10_14_4) AppleWebKit/537.36 (KHTML, like Gecko) Chrome/74.0.3729.157 Safari/537.36"",""on_chrome"":true,""on_mobile"":false,""language"":""en-US"",""screen_resolution"":[1440,900],""platform"":""MacIntel"",""timezone"":""Europe/Berlin""}","15","2955.85000000007","","","1558355054029","11","","","[]","Alfeld","false","false","4164.769999999786"
"","html-voicekey-response","104","771072","0.0-4.100-0.100","6z3euo9s2zb2tz9","{""user_agent"":""Mozilla/5.0 (Macintosh; Intel Mac OS X 10_14_4) AppleWebKit/537.36 (KHTML, like Gecko) Chrome/74.0.3729.157 Safari/537.36"",""on_chrome"":true,""on_mobile"":false,""language"":""en-US"",""screen_resolution"":[1440,900],""platform"":""MacIntel"",""timezone"":""Europe/Berlin""}","15","5421.145000000111","","","1558355062196","4","","Würzburg","[]","Würzburg","true","false","6003.424999999814"
"","html-voicekey-response","105","775740","0.0-4.101-0.101","6z3euo9s2zb2tz9","{""user_agent"":""Mozilla/5.0 (Macintosh; Intel Mac OS X 10_14_4) AppleWebKit/537.36 (KHTML, like Gecko) Chrome/74.0.3729.157 Safari/537.36"",""on_chrome"":true,""on_mobile"":false,""language"":""en-US"",""screen_resolution"":[1440,900],""platform"":""MacIntel"",""timezone"":""Europe/Berlin""}","15","3505.1500000003493","","","1558355068803","21","","Konstanz","[]","Konstanz","true","false","4063.204999999958"
"","html-voicekey-response","106","778496","0.0-4.102-0.102","6z3euo9s2zb2tz9","{""user_agent"":""Mozilla/5.0 (Macintosh; Intel Mac OS X 10_14_4) AppleWebKit/537.36 (KHTML, like Gecko) Chrome/74.0.3729.157 Safari/537.36"",""on_chrome"":true,""on_mobile"":false,""language"":""en-US"",""screen_resolution"":[1440,900],""platform"":""MacIntel"",""timezone"":""Europe/Berlin""}","15","1427.4100000001258","","","1558355073472","16","","Schwangau","[]","Schwangau","true","false","2152.5900000002002"
"","html-voicekey-response","107","782511","0.0-4.103-0.103","6z3euo9s2zb2tz9","{""user_agent"":""Mozilla/5.0 (Macintosh; Intel Mac OS X 10_14_4) AppleWebKit/537.36 (KHTML, like Gecko) Chrome/74.0.3729.157 Safari/537.36"",""on_chrome"":true,""on_mobile"":false,""language"":""en-US"",""screen_resolution"":[1440,900],""platform"":""MacIntel"",""timezone"":""Europe/Berlin""}","15","2788.4199999996695","","","1558355076226","25","","Osnabrück","[]","Osnabrück","true","false","3413.2449999997625"
"","html-voicekey-response","108","789996","0.0-4.104-0.104","6z3euo9s2zb2tz9","{""user_agent"":""Mozilla/5.0 (Macintosh; Intel Mac OS X 10_14_4) AppleWebKit/537.36 (KHTML, like Gecko) Chrome/74.0.3729.157 Safari/537.36"",""on_chrome"":true,""on_mobile"":false,""language"":""en-US"",""screen_resolution"":[1440,900],""platform"":""MacIntel"",""timezone"":""Europe/Berlin""}","15","6339.019999999646","","","1558355080242","6","","Dresden","[]","Dresden","true","false","6880.704999999492"
"","html-voicekey-response","109","793023","0.0-4.105-0.105","6z3euo9s2zb2tz9","{""user_agent"":""Mozilla/5.0 (Macintosh; Intel Mac OS X 10_14_4) AppleWebKit/537.36 (KHTML, like Gecko) Chrome/74.0.3729.157 Safari/537.36"",""on_chrome"":true,""on_mobile"":false,""language"":""en-US"",""screen_resolution"":[1440,900],""platform"":""MacIntel"",""timezone"":""Europe/Berlin""}","15","1798.5700000002748","","","1558355087727","22","","Bamberg","[]","Bamberg","true","false","2424.4200000002747"
"","html-voicekey-response","110","796890","0.0-4.106-0.106","6z3euo9s2zb2tz9","{""user_agent"":""Mozilla/5.0 (Macintosh; Intel Mac OS X 10_14_4) AppleWebKit/537.36 (KHTML, like Gecko) Chrome/74.0.3729.157 Safari/537.36"",""on_chrome"":true,""on_mobile"":false,""language"":""en-US"",""screen_resolution"":[1440,900],""platform"":""MacIntel"",""timezone"":""Europe/Berlin""}","15","2621.1099999998464","","","1558355090754","21","","Konstanz","[]","Konstanz","true","false","3264.45000000007"
"","html-voicekey-response","111","800939","0.0-4.107-0.107","6z3euo9s2zb2tz9","{""user_agent"":""Mozilla/5.0 (Macintosh; Intel Mac OS X 10_14_4) AppleWebKit/537.36 (KHTML, like Gecko) Chrome/74.0.3729.157 Safari/537.36"",""on_chrome"":true,""on_mobile"":false,""language"":""en-US"",""screen_resolution"":[1440,900],""platform"":""MacIntel"",""timezone"":""Europe/Berlin""}","15","2871.67500000014","","","1558355094621","10","","Heidelberg","[]","Heidelberg","true","false","3446.080000000191"
"","html-voicekey-response","112","807997","0.0-4.108-0.108","6z3euo9s2zb2tz9","{""user_agent"":""Mozilla/5.0 (Macintosh; Intel Mac OS X 10_14_4) AppleWebKit/537.36 (KHTML, like Gecko) Chrome/74.0.3729.157 Safari/537.36"",""on_chrome"":true,""on_mobile"":false,""language"":""en-US"",""screen_resolution"":[1440,900],""platform"":""MacIntel"",""timezone"":""Europe/Berlin""}","15","1561.805000000028","","","1558355098671","3","","","[]","Ingolstadt","false","false","3054.169999999809"
"","html-voicekey-response","113","811315","0.0-4.109-0.109","6z3euo9s2zb2tz9","{""user_agent"":""Mozilla/5.0 (Macintosh; Intel Mac OS X 10_14_4) AppleWebKit/537.36 (KHTML, like Gecko) Chrome/74.0.3729.157 Safari/537.36"",""on_chrome"":true,""on_mobile"":false,""language"":""en-US"",""screen_resolution"":[1440,900],""platform"":""MacIntel"",""timezone"":""Europe/Berlin""}","15","2138.4599999999396","","","1558355105728","9","","München","[]","München","true","false","2713.5900000003166"
"","html-voicekey-response","114","814302","0.0-4.110-0.110","6z3euo9s2zb2tz9","{""user_agent"":""Mozilla/5.0 (Macintosh; Intel Mac OS X 10_14_4) AppleWebKit/537.36 (KHTML, like Gecko) Chrome/74.0.3729.157 Safari/537.36"",""on_chrome"":true,""on_mobile"":false,""language"":""en-US"",""screen_resolution"":[1440,900],""platform"":""MacIntel"",""timezone"":""Europe/Berlin""}","15","1907.2350000004285","","","1558355109047","12","","Dessau","[]","Dessau","true","false","2383.195000000298"
"","html-voicekey-response","115","823268","0.0-4.111-0.111","6z3euo9s2zb2tz9","{""user_agent"":""Mozilla/5.0 (Macintosh; Intel Mac OS X 10_14_4) AppleWebKit/537.36 (KHTML, like Gecko) Chrome/74.0.3729.157 Safari/537.36"",""on_chrome"":true,""on_mobile"":false,""language"":""en-US"",""screen_resolution"":[1440,900],""platform"":""MacIntel"",""timezone"":""Europe/Berlin""}","15","4388.5349999998925","","","1558355112033","18","","","[]","Forchheim","false","false","4963.439999999944"
"","html-voicekey-response","116","831379","0.0-4.112-0.112","6z3euo9s2zb2tz9","{""user_agent"":""Mozilla/5.0 (Macintosh; Intel Mac OS X 10_14_4) AppleWebKit/537.36 (KHTML, like Gecko) Chrome/74.0.3729.157 Safari/537.36"",""on_chrome"":true,""on_mobile"":false,""language"":""en-US"",""screen_resolution"":[1440,900],""platform"":""MacIntel"",""timezone"":""Europe/Berlin""}","15","4939.040000000014","","","1558355120999","11","","Alfeld","[]","Alfeld","true","false","7508.185000000172"
"","html-voicekey-response","117","834829","0.0-4.113-0.113","6z3euo9s2zb2tz9","{""user_agent"":""Mozilla/5.0 (Macintosh; Intel Mac OS X 10_14_4) AppleWebKit/537.36 (KHTML, like Gecko) Chrome/74.0.3729.157 Safari/537.36"",""on_chrome"":true,""on_mobile"":false,""language"":""en-US"",""screen_resolution"":[1440,900],""platform"":""MacIntel"",""timezone"":""Europe/Berlin""}","15","100","","","1558355129111","14","","Potsdam","[]","Potsdam","true","false","2846.9300000001676"
"","html-voicekey-response","118","842420","0.0-4.114-0.114","6z3euo9s2zb2tz9","{""user_agent"":""Mozilla/5.0 (Macintosh; Intel Mac OS X 10_14_4) AppleWebKit/537.36 (KHTML, like Gecko) Chrome/74.0.3729.157 Safari/537.36"",""on_chrome"":true,""on_mobile"":false,""language"":""en-US"",""screen_resolution"":[1440,900],""platform"":""MacIntel"",""timezone"":""Europe/Berlin""}","15","1761.379999999865","","","1558355132561","21","","","[]","Konstanz","false","false","3587.230000000098"
"","html-voicekey-response","119","845787","0.0-4.115-0.115","6z3euo9s2zb2tz9","{""user_agent"":""Mozilla/5.0 (Macintosh; Intel Mac OS X 10_14_4) AppleWebKit/537.36 (KHTML, like Gecko) Chrome/74.0.3729.157 Safari/537.36"",""on_chrome"":true,""on_mobile"":false,""language"":""en-US"",""screen_resolution"":[1440,900],""platform"":""MacIntel"",""timezone"":""Europe/Berlin""}","15","2256.3899999998744","","","1558355140151","17","","Leipzig","[]","Leipzig","true","false","2764.579999999958"
"","html-voicekey-response","120","851578","0.0-4.116-0.116","6z3euo9s2zb2tz9","{""user_agent"":""Mozilla/5.0 (Macintosh; Intel Mac OS X 10_14_4) AppleWebKit/537.36 (KHTML, like Gecko) Chrome/74.0.3729.157 Safari/537.36"",""on_chrome"":true,""on_mobile"":false,""language"":""en-US"",""screen_resolution"":[1440,900],""platform"":""MacIntel"",""timezone"":""Europe/Berlin""}","15","100","","","1558355143519","4","","Würzburg","[]","Würzburg","true","false","5187.770000000019"
"","html-voicekey-response","121","855028","0.0-4.117-0.117","6z3euo9s2zb2tz9","{""user_agent"":""Mozilla/5.0 (Macintosh; Intel Mac OS X 10_14_4) AppleWebKit/537.36 (KHTML, like Gecko) Chrome/74.0.3729.157 Safari/537.36"",""on_chrome"":true,""on_mobile"":false,""language"":""en-US"",""screen_resolution"":[1440,900],""platform"":""MacIntel"",""timezone"":""Europe/Berlin""}","15","1905.104999999609","","","1558355149309","15","","Nürnberg","[]","Nürnberg","true","false","2846.804999999702"
"","html-voicekey-response","122","857718","0.0-4.118-0.118","6z3euo9s2zb2tz9","{""user_agent"":""Mozilla/5.0 (Macintosh; Intel Mac OS X 10_14_4) AppleWebKit/537.36 (KHTML, like Gecko) Chrome/74.0.3729.157 Safari/537.36"",""on_chrome"":true,""on_mobile"":false,""language"":""en-US"",""screen_resolution"":[1440,900],""platform"":""MacIntel"",""timezone"":""Europe/Berlin""}","15","1437.775000000233","","","1558355152759","22","","Bamberg","[]","Bamberg","true","false","2087.349999999744"
"","html-voicekey-response","123","865616","0.0-4.119-0.119","6z3euo9s2zb2tz9","{""user_agent"":""Mozilla/5.0 (Macintosh; Intel Mac OS X 10_14_4) AppleWebKit/537.36 (KHTML, like Gecko) Chrome/74.0.3729.157 Safari/537.36"",""on_chrome"":true,""on_mobile"":false,""language"":""en-US"",""screen_resolution"":[1440,900],""platform"":""MacIntel"",""timezone"":""Europe/Berlin""}","15","2653.3799999999815","","","1558355155449","25","","","[]","Osnabrück","false","false","3894.7449999999953"
"","html-voicekey-response","124","868375","0.0-4.120-0.120","6z3euo9s2zb2tz9","{""user_agent"":""Mozilla/5.0 (Macintosh; Intel Mac OS X 10_14_4) AppleWebKit/537.36 (KHTML, like Gecko) Chrome/74.0.3729.157 Safari/537.36"",""on_chrome"":true,""on_mobile"":false,""language"":""en-US"",""screen_resolution"":[1440,900],""platform"":""MacIntel"",""timezone"":""Europe/Berlin""}","15","1255.7700000001118","","","1558355163347","6","","Dresden","[]","Dresden","true","false","2156.430000000051"
"","html-voicekey-response","125","871307","0.0-4.121-0.121","6z3euo9s2zb2tz9","{""user_agent"":""Mozilla/5.0 (Macintosh; Intel Mac OS X 10_14_4) AppleWebKit/537.36 (KHTML, like Gecko) Chrome/74.0.3729.157 Safari/537.36"",""on_chrome"":true,""on_mobile"":false,""language"":""en-US"",""screen_resolution"":[1440,900],""platform"":""MacIntel"",""timezone"":""Europe/Berlin""}","15","1288.0899999999442","","","1558355166106","26","","Freiburg","[]","Freiburg","true","true","2329.1399999998976"
"","html-voicekey-response","126","874192","0.0-4.122-0.122","6z3euo9s2zb2tz9","{""user_agent"":""Mozilla/5.0 (Macintosh; Intel Mac OS X 10_14_4) AppleWebKit/537.36 (KHTML, like Gecko) Chrome/74.0.3729.157 Safari/537.36"",""on_chrome"":true,""on_mobile"":false,""language"":""en-US"",""screen_resolution"":[1440,900],""platform"":""MacIntel"",""timezone"":""Europe/Berlin""}","15","1238.1299999999815","","","1558355169038","27","","Tübingen","[]","Tübingen","true","true","2281.3000000000466"
"","html-voicekey-response","127","876791","0.0-4.123-0.123","6z3euo9s2zb2tz9","{""user_agent"":""Mozilla/5.0 (Macintosh; Intel Mac OS X 10_14_4) AppleWebKit/537.36 (KHTML, like Gecko) Chrome/74.0.3729.157 Safari/537.36"",""on_chrome"":true,""on_mobile"":false,""language"":""en-US"",""screen_resolution"":[1440,900],""platform"":""MacIntel"",""timezone"":""Europe/Berlin""}","15","1054.7199999999489","","","1558355171923","26","","Freiburg","[]","Freiburg","true","false","1995.70999999973"
"","html-voicekey-response","128","878934","0.0-4.124-0.124","6z3euo9s2zb2tz9","{""user_agent"":""Mozilla/5.0 (Macintosh; Intel Mac OS X 10_14_4) AppleWebKit/537.36 (KHTML, like Gecko) Chrome/74.0.3729.157 Safari/537.36"",""on_chrome"":true,""on_mobile"":false,""language"":""en-US"",""screen_resolution"":[1440,900],""platform"":""MacIntel"",""timezone"":""Europe/Berlin""}","15","748.1000000000698","","","1558355174522","27","","Tübingen","[]","Tübingen","true","false","1540.2299999999814"
"","html-voicekey-response","129","882251","0.0-4.125-0.125","6z3euo9s2zb2tz9","{""user_agent"":""Mozilla/5.0 (Macintosh; Intel Mac OS X 10_14_4) AppleWebKit/537.36 (KHTML, like Gecko) Chrome/74.0.3729.157 Safari/537.36"",""on_chrome"":true,""on_mobile"":false,""language"":""en-US"",""screen_resolution"":[1440,900],""platform"":""MacIntel"",""timezone"":""Europe/Berlin""}","15","2104.8949999997626","","","1558355176666","11","","Alfeld","[]","Alfeld","true","false","2713.369999999879"
"","html-voicekey-response","130","885851","0.0-4.126-0.126","6z3euo9s2zb2tz9","{""user_agent"":""Mozilla/5.0 (Macintosh; Intel Mac OS X 10_14_4) AppleWebKit/537.36 (KHTML, like Gecko) Chrome/74.0.3729.157 Safari/537.36"",""on_chrome"":true,""on_mobile"":false,""language"":""en-US"",""screen_resolution"":[1440,900],""platform"":""MacIntel"",""timezone"":""Europe/Berlin""}","15","2288.9599999997067","","","1558355179982","19","","Frankfurt","[]","Frankfurt","true","false","2997.079999999609"
"","html-voicekey-response","131","890435","0.0-4.127-0.127","6z3euo9s2zb2tz9","{""user_agent"":""Mozilla/5.0 (Macintosh; Intel Mac OS X 10_14_4) AppleWebKit/537.36 (KHTML, like Gecko) Chrome/74.0.3729.157 Safari/537.36"",""on_chrome"":true,""on_mobile"":false,""language"":""en-US"",""screen_resolution"":[1440,900],""platform"":""MacIntel"",""timezone"":""Europe/Berlin""}","15","2704.55000000014","","","1558355183582","21","","Konstanz","[]","Konstanz","true","false","3980.135000000242"
"","html-voicekey-response","132","900608","0.0-4.128-0.128","6z3euo9s2zb2tz9","{""user_agent"":""Mozilla/5.0 (Macintosh; Intel Mac OS X 10_14_4) AppleWebKit/537.36 (KHTML, like Gecko) Chrome/74.0.3729.157 Safari/537.36"",""on_chrome"":true,""on_mobile"":false,""language"":""en-US"",""screen_resolution"":[1440,900],""platform"":""MacIntel"",""timezone"":""Europe/Berlin""}","15","5594.405000000121","","","1558355188167","18","","","[]","Forchheim","false","false","6169.74000000034"
"","html-voicekey-response","133","903648","0.0-4.129-0.129","6z3euo9s2zb2tz9","{""user_agent"":""Mozilla/5.0 (Macintosh; Intel Mac OS X 10_14_4) AppleWebKit/537.36 (KHTML, like Gecko) Chrome/74.0.3729.157 Safari/537.36"",""on_chrome"":true,""on_mobile"":false,""language"":""en-US"",""screen_resolution"":[1440,900],""platform"":""MacIntel"",""timezone"":""Europe/Berlin""}","15","1587.5399999998976","","","1558355198340","3","","Ingolstadt","[]","Ingolstadt","true","false","2436.7449999999953"
"","html-voicekey-response","134","906482","0.0-4.130-0.130","6z3euo9s2zb2tz9","{""user_agent"":""Mozilla/5.0 (Macintosh; Intel Mac OS X 10_14_4) AppleWebKit/537.36 (KHTML, like Gecko) Chrome/74.0.3729.157 Safari/537.36"",""on_chrome"":true,""on_mobile"":false,""language"":""en-US"",""screen_resolution"":[1440,900],""platform"":""MacIntel"",""timezone"":""Europe/Berlin""}","15","1604.490000000084","","","1558355201380","20","","Hamburg ","[]","Hamburg ","true","false","2229.8500000002095"
"","html-voicekey-response","135","909148","0.0-4.131-0.131","6z3euo9s2zb2tz9","{""user_agent"":""Mozilla/5.0 (Macintosh; Intel Mac OS X 10_14_4) AppleWebKit/537.36 (KHTML, like Gecko) Chrome/74.0.3729.157 Safari/537.36"",""on_chrome"":true,""on_mobile"":false,""language"":""en-US"",""screen_resolution"":[1440,900],""platform"":""MacIntel"",""timezone"":""Europe/Berlin""}","15","1437.4050000000047","","","1558355204213","7","","Erfurt","[]","Erfurt","true","false","2062.7649999996647"
"","html-voicekey-response","136","913116","0.0-4.132-0.132","6z3euo9s2zb2tz9","{""user_agent"":""Mozilla/5.0 (Macintosh; Intel Mac OS X 10_14_4) AppleWebKit/537.36 (KHTML, like Gecko) Chrome/74.0.3729.157 Safari/537.36"",""on_chrome"":true,""on_mobile"":false,""language"":""en-US"",""screen_resolution"":[1440,900],""platform"":""MacIntel"",""timezone"":""Europe/Berlin""}","15","2221.335000000056","","","1558355206879","5","","Aachen","[]","Aachen","true","false","3363.8899999996647"
"","html-voicekey-response","137","917191","0.0-4.133-0.133","6z3euo9s2zb2tz9","{""user_agent"":""Mozilla/5.0 (Macintosh; Intel Mac OS X 10_14_4) AppleWebKit/537.36 (KHTML, like Gecko) Chrome/74.0.3729.157 Safari/537.36"",""on_chrome"":true,""on_mobile"":false,""language"":""en-US"",""screen_resolution"":[1440,900],""platform"":""MacIntel"",""timezone"":""Europe/Berlin""}","15","1730.5499999996741","","","1558355210847","28","","Regensburg","[]","Regensburg","true","true","3472.3649999996414"
"","html-voicekey-response","138","921707","0.0-4.134-0.134","6z3euo9s2zb2tz9","{""user_agent"":""Mozilla/5.0 (Macintosh; Intel Mac OS X 10_14_4) AppleWebKit/537.36 (KHTML, like Gecko) Chrome/74.0.3729.157 Safari/537.36"",""on_chrome"":true,""on_mobile"":false,""language"":""en-US"",""screen_resolution"":[1440,900],""platform"":""MacIntel"",""timezone"":""Europe/Berlin""}","15","3171.979999999958","","","1558355214922","21","","Konstanz","[]","Konstanz","true","false","3913.484999999637"
"","html-voicekey-response","139","925415","0.0-4.135-0.135","6z3euo9s2zb2tz9","{""user_agent"":""Mozilla/5.0 (Macintosh; Intel Mac OS X 10_14_4) AppleWebKit/537.36 (KHTML, like Gecko) Chrome/74.0.3729.157 Safari/537.36"",""on_chrome"":true,""on_mobile"":false,""language"":""en-US"",""screen_resolution"":[1440,900],""platform"":""MacIntel"",""timezone"":""Europe/Berlin""}","15","1072.2649999999908","","","1558355219439","28","","Regensburg","[]","Regensburg","true","false","3104.170000000042"
"","html-voicekey-response","140","929865","0.0-4.136-0.136","6z3euo9s2zb2tz9","{""user_agent"":""Mozilla/5.0 (Macintosh; Intel Mac OS X 10_14_4) AppleWebKit/537.36 (KHTML, like Gecko) Chrome/74.0.3729.157 Safari/537.36"",""on_chrome"":true,""on_mobile"":false,""language"":""en-US"",""screen_resolution"":[1440,900],""platform"":""MacIntel"",""timezone"":""Europe/Berlin""}","15","3103.6199999997393","","","1558355223147","26","","Freiburg","[]","Freiburg","true","false","3846.224999999744"
"","html-voicekey-response","141","939848","0.0-4.137-0.137","6z3euo9s2zb2tz9","{""user_agent"":""Mozilla/5.0 (Macintosh; Intel Mac OS X 10_14_4) AppleWebKit/537.36 (KHTML, like Gecko) Chrome/74.0.3729.157 Safari/537.36"",""on_chrome"":true,""on_mobile"":false,""language"":""en-US"",""screen_resolution"":[1440,900],""platform"":""MacIntel"",""timezone"":""Europe/Berlin""}","15","5387.9050000003535","","","1558355227596","27","","","[]","Tübingen","false","false","5979.420000000158"
"","html-voicekey-response","142","943204","0.0-4.138-0.138","6z3euo9s2zb2tz9","{""user_agent"":""Mozilla/5.0 (Macintosh; Intel Mac OS X 10_14_4) AppleWebKit/537.36 (KHTML, like Gecko) Chrome/74.0.3729.157 Safari/537.36"",""on_chrome"":true,""on_mobile"":false,""language"":""en-US"",""screen_resolution"":[1440,900],""platform"":""MacIntel"",""timezone"":""Europe/Berlin""}","15","2076.8200000001584","","","1558355237581","25","","Osnabrück","[]","Osnabrück","true","false","2751.4699999997392"
"","html-voicekey-response","143","945772","0.0-4.139-0.139","6z3euo9s2zb2tz9","{""user_agent"":""Mozilla/5.0 (Macintosh; Intel Mac OS X 10_14_4) AppleWebKit/537.36 (KHTML, like Gecko) Chrome/74.0.3729.157 Safari/537.36"",""on_chrome"":true,""on_mobile"":false,""language"":""en-US"",""screen_resolution"":[1440,900],""platform"":""MacIntel"",""timezone"":""Europe/Berlin""}","15","1321.35000000007","","","1558355240936","29","","Jena","[]","Jena","true","true","1963.8649999997579"
"","html-voicekey-response","144","948180","0.0-4.140-0.140","6z3euo9s2zb2tz9","{""user_agent"":""Mozilla/5.0 (Macintosh; Intel Mac OS X 10_14_4) AppleWebKit/537.36 (KHTML, like Gecko) Chrome/74.0.3729.157 Safari/537.36"",""on_chrome"":true,""on_mobile"":false,""language"":""en-US"",""screen_resolution"":[1440,900],""platform"":""MacIntel"",""timezone"":""Europe/Berlin""}","15","1154.284999999893","","","1558355243504","30","","Bremen","[]","Bremen","true","true","1804.2500000001164"
"","html-voicekey-response","145","950230","0.0-4.141-0.141","6z3euo9s2zb2tz9","{""user_agent"":""Mozilla/5.0 (Macintosh; Intel Mac OS X 10_14_4) AppleWebKit/537.36 (KHTML, like Gecko) Chrome/74.0.3729.157 Safari/537.36"",""on_chrome"":true,""on_mobile"":false,""language"":""en-US"",""screen_resolution"":[1440,900],""platform"":""MacIntel"",""timezone"":""Europe/Berlin""}","15","902.9400000001536","","","1558355245913","29","","Jena","[]","Jena","true","false","1445.0999999998603"
"","html-voicekey-response","146","952495","0.0-4.142-0.142","6z3euo9s2zb2tz9","{""user_agent"":""Mozilla/5.0 (Macintosh; Intel Mac OS X 10_14_4) AppleWebKit/537.36 (KHTML, like Gecko) Chrome/74.0.3729.157 Safari/537.36"",""on_chrome"":true,""on_mobile"":false,""language"":""en-US"",""screen_resolution"":[1440,900],""platform"":""MacIntel"",""timezone"":""Europe/Berlin""}","15","1003.9550000000512","","","1558355247962","30","","Bremen","[]","Bremen","true","false","1662.2250000000931"
"","html-voicekey-response","147","955879","0.0-4.143-0.143","6z3euo9s2zb2tz9","{""user_agent"":""Mozilla/5.0 (Macintosh; Intel Mac OS X 10_14_4) AppleWebKit/537.36 (KHTML, like Gecko) Chrome/74.0.3729.157 Safari/537.36"",""on_chrome"":true,""on_mobile"":false,""language"":""en-US"",""screen_resolution"":[1440,900],""platform"":""MacIntel"",""timezone"":""Europe/Berlin""}","15","2287.564999999921","","","1558355250227","22","","Bamberg","[]","Bamberg","true","false","2780.5500000000466"
"","html-voicekey-response","148","958836","0.0-4.144-0.144","6z3euo9s2zb2tz9","{""user_agent"":""Mozilla/5.0 (Macintosh; Intel Mac OS X 10_14_4) AppleWebKit/537.36 (KHTML, like Gecko) Chrome/74.0.3729.157 Safari/537.36"",""on_chrome"":true,""on_mobile"":false,""language"":""en-US"",""screen_resolution"":[1440,900],""platform"":""MacIntel"",""timezone"":""Europe/Berlin""}","15","1770.3549999998418","","","1558355253611","13","","Chemnitz","[]","Chemnitz","true","false","2353.5349999996834"
"","html-voicekey-response","149","966652","0.0-4.145-0.145","6z3euo9s2zb2tz9","{""user_agent"":""Mozilla/5.0 (Macintosh; Intel Mac OS X 10_14_4) AppleWebKit/537.36 (KHTML, like Gecko) Chrome/74.0.3729.157 Safari/537.36"",""on_chrome"":true,""on_mobile"":false,""language"":""en-US"",""screen_resolution"":[1440,900],""platform"":""MacIntel"",""timezone"":""Europe/Berlin""}","15","2454.7200000000653","","","1558355256568","21","","","[]","Konstanz","false","false","3812.1200000001118"
"","html-voicekey-response","150","970363","0.0-4.146-0.146","6z3euo9s2zb2tz9","{""user_agent"":""Mozilla/5.0 (Macintosh; Intel Mac OS X 10_14_4) AppleWebKit/537.36 (KHTML, like Gecko) Chrome/74.0.3729.157 Safari/537.36"",""on_chrome"":true,""on_mobile"":false,""language"":""en-US"",""screen_resolution"":[1440,900],""platform"":""MacIntel"",""timezone"":""Europe/Berlin""}","15","2438.4750000003028","","","1558355264384","26","","Freiburg","[]","Freiburg","true","false","3107.359999999986"
"","html-voicekey-response","151","982050","0.0-4.147-0.147","6z3euo9s2zb2tz9","{""user_agent"":""Mozilla/5.0 (Macintosh; Intel Mac OS X 10_14_4) AppleWebKit/537.36 (KHTML, like Gecko) Chrome/74.0.3729.157 Safari/537.36"",""on_chrome"":true,""on_mobile"":false,""language"":""en-US"",""screen_resolution"":[1440,900],""platform"":""MacIntel"",""timezone"":""Europe/Berlin""}","15","7037.949999999697","","","1558355268095","27","","","[]","Tübingen","false","false","7681.0599999999395"
"","html-voicekey-response","152","985120","0.0-4.148-0.148","6z3euo9s2zb2tz9","{""user_agent"":""Mozilla/5.0 (Macintosh; Intel Mac OS X 10_14_4) AppleWebKit/537.36 (KHTML, like Gecko) Chrome/74.0.3729.157 Safari/537.36"",""on_chrome"":true,""on_mobile"":false,""language"":""en-US"",""screen_resolution"":[1440,900],""platform"":""MacIntel"",""timezone"":""Europe/Berlin""}","15","1540.344999999716","","","1558355279782","21","","Konstanz","[]","Konstanz","true","false","2466.7149999999674"
"","html-voicekey-response","153","993972","0.0-4.149-0.149","6z3euo9s2zb2tz9","{""user_agent"":""Mozilla/5.0 (Macintosh; Intel Mac OS X 10_14_4) AppleWebKit/537.36 (KHTML, like Gecko) Chrome/74.0.3729.157 Safari/537.36"",""on_chrome"":true,""on_mobile"":false,""language"":""en-US"",""screen_resolution"":[1440,900],""platform"":""MacIntel"",""timezone"":""Europe/Berlin""}","15","2386.749999999977","","","1558355282852","28","","","[]","Regensburg","false","false","4845.849999999744"
"","html-voicekey-response","154","1004793","0.0-4.150-0.150","6z3euo9s2zb2tz9","{""user_agent"":""Mozilla/5.0 (Macintosh; Intel Mac OS X 10_14_4) AppleWebKit/537.36 (KHTML, like Gecko) Chrome/74.0.3729.157 Safari/537.36"",""on_chrome"":true,""on_mobile"":false,""language"":""en-US"",""screen_resolution"":[1440,900],""platform"":""MacIntel"",""timezone"":""Europe/Berlin""}","15","9458.375000000093","","","1558355291704","18","","Forchheim","[]","Forchheim","true","false","10216.995000000228"
"","html-voicekey-response","155","1007088","0.0-4.151-0.151","6z3euo9s2zb2tz9","{""user_agent"":""Mozilla/5.0 (Macintosh; Intel Mac OS X 10_14_4) AppleWebKit/537.36 (KHTML, like Gecko) Chrome/74.0.3729.157 Safari/537.36"",""on_chrome"":true,""on_mobile"":false,""language"":""en-US"",""screen_resolution"":[1440,900],""platform"":""MacIntel"",""timezone"":""Europe/Berlin""}","15","1214.8700000000886","","","1558355302525","29","","Jena","[]","Jena","true","false","1691.1250000002328"
"","html-voicekey-response","156","1021354","0.0-4.152-0.152","6z3euo9s2zb2tz9","{""user_agent"":""Mozilla/5.0 (Macintosh; Intel Mac OS X 10_14_4) AppleWebKit/537.36 (KHTML, like Gecko) Chrome/74.0.3729.157 Safari/537.36"",""on_chrome"":true,""on_mobile"":false,""language"":""en-US"",""screen_resolution"":[1440,900],""platform"":""MacIntel"",""timezone"":""Europe/Berlin""}","15","9653.239999999967","","","1558355304820","30","","","[]","Bremen","false","false","10261.860000000102"
