"value","trial_type","trial_index","time_elapsed","internal_node_id","subject","browser_info","participant_number","rt","responses","view_history","presentation_start_time","id","text","response","keypresses","answer","correct","study","experimenter_rt"
"","call-function","0","6","0.0-0.0","2cxdpsu3uj2eu8h","{""user_agent"":""Mozilla/5.0 (Macintosh; Intel Mac OS X 10_14_4) AppleWebKit/537.36 (KHTML, like Gecko) Chrome/74.0.3729.169 Safari/537.36"",""on_chrome"":true,""on_mobile"":false,""language"":""en-US"",""screen_resolution"":[1440,900],""platform"":""MacIntel"",""timezone"":""Europe/Berlin""}","16","","","","","","","","","","","",""
"","survey-text","1","4305","0.0-1.0","2cxdpsu3uj2eu8h","{""user_agent"":""Mozilla/5.0 (Macintosh; Intel Mac OS X 10_14_4) AppleWebKit/537.36 (KHTML, like Gecko) Chrome/74.0.3729.169 Safari/537.36"",""on_chrome"":true,""on_mobile"":false,""language"":""en-US"",""screen_resolution"":[1440,900],""platform"":""MacIntel"",""timezone"":""Europe/Berlin""}","16","4298","{""Q0"":""16""}","","","","","","","","","",""
"","instructions","2","100257","0.0-2.0","2cxdpsu3uj2eu8h","{""user_agent"":""Mozilla/5.0 (Macintosh; Intel Mac OS X 10_14_4) AppleWebKit/537.36 (KHTML, like Gecko) Chrome/74.0.3729.169 Safari/537.36"",""on_chrome"":true,""on_mobile"":false,""language"":""en-US"",""screen_resolution"":[1440,900],""platform"":""MacIntel"",""timezone"":""Europe/Berlin""}","16","95951","","[{""page_index"":0,""viewing_time"":95951}]","","","","","","","","",""
"","call-function","3","100258","0.0-3.0","2cxdpsu3uj2eu8h","{""user_agent"":""Mozilla/5.0 (Macintosh; Intel Mac OS X 10_14_4) AppleWebKit/537.36 (KHTML, like Gecko) Chrome/74.0.3729.169 Safari/537.36"",""on_chrome"":true,""on_mobile"":false,""language"":""en-US"",""screen_resolution"":[1440,900],""platform"":""MacIntel"",""timezone"":""Europe/Berlin""}","16","","","","","","","","","","","",""
"","html-voicekey-response","4","106333","0.0-4.0-0.0","2cxdpsu3uj2eu8h","{""user_agent"":""Mozilla/5.0 (Macintosh; Intel Mac OS X 10_14_4) AppleWebKit/537.36 (KHTML, like Gecko) Chrome/74.0.3729.169 Safari/537.36"",""on_chrome"":true,""on_mobile"":false,""language"":""en-US"",""screen_resolution"":[1440,900],""platform"":""MacIntel"",""timezone"":""Europe/Berlin""}","16","4803.4900000000835","","","1558516253271","1","","Magdeburg","[]","Magdeburg","true","true","5470.8450000034645"
"","html-voicekey-response","5","116749","0.0-4.1-0.1","2cxdpsu3uj2eu8h","{""user_agent"":""Mozilla/5.0 (Macintosh; Intel Mac OS X 10_14_4) AppleWebKit/537.36 (KHTML, like Gecko) Chrome/74.0.3729.169 Safari/537.36"",""on_chrome"":true,""on_mobile"":false,""language"":""en-US"",""screen_resolution"":[1440,900],""platform"":""MacIntel"",""timezone"":""Europe/Berlin""}","16","9084.720000000589","","","1558516259349","1","","Magdeburg","[]","Magdeburg","true","false","9809.025000002293"
"","html-voicekey-response","6","122194","0.0-4.2-0.2","2cxdpsu3uj2eu8h","{""user_agent"":""Mozilla/5.0 (Macintosh; Intel Mac OS X 10_14_4) AppleWebKit/537.36 (KHTML, like Gecko) Chrome/74.0.3729.169 Safari/537.36"",""on_chrome"":true,""on_mobile"":false,""language"":""en-US"",""screen_resolution"":[1440,900],""platform"":""MacIntel"",""timezone"":""Europe/Berlin""}","16","4332.519999997958","","","1558516269761","2","","Berlin","[]","Berlin","true","true","4842.510000002221"
"","html-voicekey-response","7","127946","0.0-4.3-0.3","2cxdpsu3uj2eu8h","{""user_agent"":""Mozilla/5.0 (Macintosh; Intel Mac OS X 10_14_4) AppleWebKit/537.36 (KHTML, like Gecko) Chrome/74.0.3729.169 Safari/537.36"",""on_chrome"":true,""on_mobile"":false,""language"":""en-US"",""screen_resolution"":[1440,900],""platform"":""MacIntel"",""timezone"":""Europe/Berlin""}","16","4688.899999995401","","","1558516275206","2","","Berlin","[]","Berlin","true","false","5147.884999998496"
"","html-voicekey-response","8","131485","0.0-4.4-0.4","2cxdpsu3uj2eu8h","{""user_agent"":""Mozilla/5.0 (Macintosh; Intel Mac OS X 10_14_4) AppleWebKit/537.36 (KHTML, like Gecko) Chrome/74.0.3729.169 Safari/537.36"",""on_chrome"":true,""on_mobile"":false,""language"":""en-US"",""screen_resolution"":[1440,900],""platform"":""MacIntel"",""timezone"":""Europe/Berlin""}","16","2327.8749999970664","","","1558516280958","3","","Ingolstadt","[]","Ingolstadt","true","true","2936.5649999963352"
"","html-voicekey-response","9","135084","0.0-4.5-0.5","2cxdpsu3uj2eu8h","{""user_agent"":""Mozilla/5.0 (Macintosh; Intel Mac OS X 10_14_4) AppleWebKit/537.36 (KHTML, like Gecko) Chrome/74.0.3729.169 Safari/537.36"",""on_chrome"":true,""on_mobile"":false,""language"":""en-US"",""screen_resolution"":[1440,900],""platform"":""MacIntel"",""timezone"":""Europe/Berlin""}","16","2372.414999999665","","","1558516284497","4","","Würzburg","[]","Würzburg","true","true","2997.6199999946402"
"","html-voicekey-response","10","149235","0.0-4.6-0.6","2cxdpsu3uj2eu8h","{""user_agent"":""Mozilla/5.0 (Macintosh; Intel Mac OS X 10_14_4) AppleWebKit/537.36 (KHTML, like Gecko) Chrome/74.0.3729.169 Safari/537.36"",""on_chrome"":true,""on_mobile"":false,""language"":""en-US"",""screen_resolution"":[1440,900],""platform"":""MacIntel"",""timezone"":""Europe/Berlin""}","16","9121.959999998426","","","1558516288096","3","","","[]","Ingolstadt","false","false","10148.134999995818"
"","html-voicekey-response","11","152834","0.0-4.7-0.7","2cxdpsu3uj2eu8h","{""user_agent"":""Mozilla/5.0 (Macintosh; Intel Mac OS X 10_14_4) AppleWebKit/537.36 (KHTML, like Gecko) Chrome/74.0.3729.169 Safari/537.36"",""on_chrome"":true,""on_mobile"":false,""language"":""en-US"",""screen_resolution"":[1440,900],""platform"":""MacIntel"",""timezone"":""Europe/Berlin""}","16","2254.9500000039466","","","1558516302247","4","","Würzburg","[]","Würzburg","true","false","2996.3500000012573"
"","html-voicekey-response","12","160986","0.0-4.8-0.8","2cxdpsu3uj2eu8h","{""user_agent"":""Mozilla/5.0 (Macintosh; Intel Mac OS X 10_14_4) AppleWebKit/537.36 (KHTML, like Gecko) Chrome/74.0.3729.169 Safari/537.36"",""on_chrome"":true,""on_mobile"":false,""language"":""en-US"",""screen_resolution"":[1440,900],""platform"":""MacIntel"",""timezone"":""Europe/Berlin""}","16","6972.885000004526","","","1558516305846","1","","Magdeburg","[]","Magdeburg","true","false","7548.555000001215"
"","html-voicekey-response","13","167761","0.0-4.9-0.9","2cxdpsu3uj2eu8h","{""user_agent"":""Mozilla/5.0 (Macintosh; Intel Mac OS X 10_14_4) AppleWebKit/537.36 (KHTML, like Gecko) Chrome/74.0.3729.169 Safari/537.36"",""on_chrome"":true,""on_mobile"":false,""language"":""en-US"",""screen_resolution"":[1440,900],""platform"":""MacIntel"",""timezone"":""Europe/Berlin""}","16","5497.045000005373","","","1558516313999","5","","Aachen","[]","Aachen","true","true","6171.930000004068"
"","html-voicekey-response","14","171114","0.0-4.10-0.10","2cxdpsu3uj2eu8h","{""user_agent"":""Mozilla/5.0 (Macintosh; Intel Mac OS X 10_14_4) AppleWebKit/537.36 (KHTML, like Gecko) Chrome/74.0.3729.169 Safari/537.36"",""on_chrome"":true,""on_mobile"":false,""language"":""en-US"",""screen_resolution"":[1440,900],""platform"":""MacIntel"",""timezone"":""Europe/Berlin""}","16","2088.9400000031223","","","1558516320774","2","","Berlin","[]","Berlin","true","false","2748.29999999929"
"","html-voicekey-response","15","181387","0.0-4.11-0.11","2cxdpsu3uj2eu8h","{""user_agent"":""Mozilla/5.0 (Macintosh; Intel Mac OS X 10_14_4) AppleWebKit/537.36 (KHTML, like Gecko) Chrome/74.0.3729.169 Safari/537.36"",""on_chrome"":true,""on_mobile"":false,""language"":""en-US"",""screen_resolution"":[1440,900],""platform"":""MacIntel"",""timezone"":""Europe/Berlin""}","16","4910.460000000812","","","1558516324127","5","","","[]","Aachen","false","false","6269.9500000017"
"","html-voicekey-response","16","186044","0.0-4.12-0.12","2cxdpsu3uj2eu8h","{""user_agent"":""Mozilla/5.0 (Macintosh; Intel Mac OS X 10_14_4) AppleWebKit/537.36 (KHTML, like Gecko) Chrome/74.0.3729.169 Safari/537.36"",""on_chrome"":true,""on_mobile"":false,""language"":""en-US"",""screen_resolution"":[1440,900],""platform"":""MacIntel"",""timezone"":""Europe/Berlin""}","16","3537.975000000943","","","1558516334399","3","","Ingolstadt","[]","Ingolstadt","true","false","4055.4300000003423"
"","html-voicekey-response","17","189610","0.0-4.13-0.13","2cxdpsu3uj2eu8h","{""user_agent"":""Mozilla/5.0 (Macintosh; Intel Mac OS X 10_14_4) AppleWebKit/537.36 (KHTML, like Gecko) Chrome/74.0.3729.169 Safari/537.36"",""on_chrome"":true,""on_mobile"":false,""language"":""en-US"",""screen_resolution"":[1440,900],""platform"":""MacIntel"",""timezone"":""Europe/Berlin""}","16","2121.3450000012294","","","1558516339057","6","","Dresden","[]","Dresden","true","true","2962.5250000026426"
"","html-voicekey-response","18","192479","0.0-4.14-0.14","2cxdpsu3uj2eu8h","{""user_agent"":""Mozilla/5.0 (Macintosh; Intel Mac OS X 10_14_4) AppleWebKit/537.36 (KHTML, like Gecko) Chrome/74.0.3729.169 Safari/537.36"",""on_chrome"":true,""on_mobile"":false,""language"":""en-US"",""screen_resolution"":[1440,900],""platform"":""MacIntel"",""timezone"":""Europe/Berlin""}","16","1722.8349999948755","","","1558516342622","7","","Erfurt","[]","Erfurt","true","true","2264.999999999418"
"","html-voicekey-response","19","204085","0.0-4.15-0.15","2cxdpsu3uj2eu8h","{""user_agent"":""Mozilla/5.0 (Macintosh; Intel Mac OS X 10_14_4) AppleWebKit/537.36 (KHTML, like Gecko) Chrome/74.0.3729.169 Safari/537.36"",""on_chrome"":true,""on_mobile"":false,""language"":""en-US"",""screen_resolution"":[1440,900],""platform"":""MacIntel"",""timezone"":""Europe/Berlin""}","16","6461.4900000031685","","","1558516345492","6","","","[]","Dresden","false","false","7602.925000006508"
"","html-voicekey-response","20","206875","0.0-4.16-0.16","2cxdpsu3uj2eu8h","{""user_agent"":""Mozilla/5.0 (Macintosh; Intel Mac OS X 10_14_4) AppleWebKit/537.36 (KHTML, like Gecko) Chrome/74.0.3729.169 Safari/537.36"",""on_chrome"":true,""on_mobile"":false,""language"":""en-US"",""screen_resolution"":[1440,900],""platform"":""MacIntel"",""timezone"":""Europe/Berlin""}","16","1521.7999999966473","","","1558516357098","7","","Erfurt","[]","Erfurt","true","false","2186.795000001439"
"","html-voicekey-response","21","209508","0.0-4.17-0.17","2cxdpsu3uj2eu8h","{""user_agent"":""Mozilla/5.0 (Macintosh; Intel Mac OS X 10_14_4) AppleWebKit/537.36 (KHTML, like Gecko) Chrome/74.0.3729.169 Safari/537.36"",""on_chrome"":true,""on_mobile"":false,""language"":""en-US"",""screen_resolution"":[1440,900],""platform"":""MacIntel"",""timezone"":""Europe/Berlin""}","16","1271.0150000001072","","","1558516359888","1","","Magdeburg","[]","Magdeburg","true","false","2029.9300000042422"
"","html-voicekey-response","22","221607","0.0-4.18-0.18","2cxdpsu3uj2eu8h","{""user_agent"":""Mozilla/5.0 (Macintosh; Intel Mac OS X 10_14_4) AppleWebKit/537.36 (KHTML, like Gecko) Chrome/74.0.3729.169 Safari/537.36"",""on_chrome"":true,""on_mobile"":false,""language"":""en-US"",""screen_resolution"":[1440,900],""platform"":""MacIntel"",""timezone"":""Europe/Berlin""}","16","2288.455000003369","","","1558516362520","4","","","[]","Würzburg","false","false","8096.955000000889"
"","html-voicekey-response","23","236171","0.0-4.19-0.19","2cxdpsu3uj2eu8h","{""user_agent"":""Mozilla/5.0 (Macintosh; Intel Mac OS X 10_14_4) AppleWebKit/537.36 (KHTML, like Gecko) Chrome/74.0.3729.169 Safari/537.36"",""on_chrome"":true,""on_mobile"":false,""language"":""en-US"",""screen_resolution"":[1440,900],""platform"":""MacIntel"",""timezone"":""Europe/Berlin""}","16","9917.934999999334","","","1558516374620","5","","","[]","Aachen","false","false","10559.820000002219"
"","html-voicekey-response","24","246068","0.0-4.20-0.20","2cxdpsu3uj2eu8h","{""user_agent"":""Mozilla/5.0 (Macintosh; Intel Mac OS X 10_14_4) AppleWebKit/537.36 (KHTML, like Gecko) Chrome/74.0.3729.169 Safari/537.36"",""on_chrome"":true,""on_mobile"":false,""language"":""en-US"",""screen_resolution"":[1440,900],""platform"":""MacIntel"",""timezone"":""Europe/Berlin""}","16","8648.0250000039","","","1558516389184","3","","Ingolstadt","[]","Ingolstadt","true","false","9292.124999999942"
"","html-voicekey-response","25","249791","0.0-4.21-0.21","2cxdpsu3uj2eu8h","{""user_agent"":""Mozilla/5.0 (Macintosh; Intel Mac OS X 10_14_4) AppleWebKit/537.36 (KHTML, like Gecko) Chrome/74.0.3729.169 Safari/537.36"",""on_chrome"":true,""on_mobile"":false,""language"":""en-US"",""screen_resolution"":[1440,900],""platform"":""MacIntel"",""timezone"":""Europe/Berlin""}","16","2343.844999997446","","","1558516399082","6","","Dresden","[]","Dresden","true","false","3118.864999996731"
"","html-voicekey-response","26","253309","0.0-4.22-0.22","2cxdpsu3uj2eu8h","{""user_agent"":""Mozilla/5.0 (Macintosh; Intel Mac OS X 10_14_4) AppleWebKit/537.36 (KHTML, like Gecko) Chrome/74.0.3729.169 Safari/537.36"",""on_chrome"":true,""on_mobile"":false,""language"":""en-US"",""screen_resolution"":[1440,900],""platform"":""MacIntel"",""timezone"":""Europe/Berlin""}","16","2137.585000005702","","","1558516402804","8","","Gotha","[]","Gotha","true","true","2914.215000004333"
"","html-voicekey-response","27","267725","0.0-4.23-0.23","2cxdpsu3uj2eu8h","{""user_agent"":""Mozilla/5.0 (Macintosh; Intel Mac OS X 10_14_4) AppleWebKit/537.36 (KHTML, like Gecko) Chrome/74.0.3729.169 Safari/537.36"",""on_chrome"":true,""on_mobile"":false,""language"":""en-US"",""screen_resolution"":[1440,900],""platform"":""MacIntel"",""timezone"":""Europe/Berlin""}","16","9487.009999998763","","","1558516406322","4","","","[]","Würzburg","false","false","10412.094999999681"
"","html-voicekey-response","28","282120","0.0-4.24-0.24","2cxdpsu3uj2eu8h","{""user_agent"":""Mozilla/5.0 (Macintosh; Intel Mac OS X 10_14_4) AppleWebKit/537.36 (KHTML, like Gecko) Chrome/74.0.3729.169 Safari/537.36"",""on_chrome"":true,""on_mobile"":false,""language"":""en-US"",""screen_resolution"":[1440,900],""platform"":""MacIntel"",""timezone"":""Europe/Berlin""}","16","9266.449999997194","","","1558516420738","8","","","[]","Gotha","false","false","10392.01000000321"
"","html-voicekey-response","29","287798","0.0-4.25-0.25","2cxdpsu3uj2eu8h","{""user_agent"":""Mozilla/5.0 (Macintosh; Intel Mac OS X 10_14_4) AppleWebKit/537.36 (KHTML, like Gecko) Chrome/74.0.3729.169 Safari/537.36"",""on_chrome"":true,""on_mobile"":false,""language"":""en-US"",""screen_resolution"":[1440,900],""platform"":""MacIntel"",""timezone"":""Europe/Berlin""}","16","4350.035000004782","","","1558516435133","3","","Ingolstadt","[]","Ingolstadt","true","false","5074.725000005856"
"","html-voicekey-response","30","290889","0.0-4.26-0.26","2cxdpsu3uj2eu8h","{""user_agent"":""Mozilla/5.0 (Macintosh; Intel Mac OS X 10_14_4) AppleWebKit/537.36 (KHTML, like Gecko) Chrome/74.0.3729.169 Safari/537.36"",""on_chrome"":true,""on_mobile"":false,""language"":""en-US"",""screen_resolution"":[1440,900],""platform"":""MacIntel"",""timezone"":""Europe/Berlin""}","16","1760.4650000010502","","","1558516440813","7","","Erfurt","[]","Erfurt","true","false","2486.2149999971734"
"","html-voicekey-response","31","297006","0.0-4.27-0.27","2cxdpsu3uj2eu8h","{""user_agent"":""Mozilla/5.0 (Macintosh; Intel Mac OS X 10_14_4) AppleWebKit/537.36 (KHTML, like Gecko) Chrome/74.0.3729.169 Safari/537.36"",""on_chrome"":true,""on_mobile"":false,""language"":""en-US"",""screen_resolution"":[1440,900],""platform"":""MacIntel"",""timezone"":""Europe/Berlin""}","16","4870.969999997969","","","1558516443902","5","","Aachen","[]","Aachen","true","false","5513.574999997218"
"","html-voicekey-response","32","304590","0.0-4.28-0.28","2cxdpsu3uj2eu8h","{""user_agent"":""Mozilla/5.0 (Macintosh; Intel Mac OS X 10_14_4) AppleWebKit/537.36 (KHTML, like Gecko) Chrome/74.0.3729.169 Safari/537.36"",""on_chrome"":true,""on_mobile"":false,""language"":""en-US"",""screen_resolution"":[1440,900],""platform"":""MacIntel"",""timezone"":""Europe/Berlin""}","16","2672.2850000022213","","","1558516450019","4","","","[]","Würzburg","false","false","3580.455000002985"
"","html-voicekey-response","33","309200","0.0-4.29-0.29","2cxdpsu3uj2eu8h","{""user_agent"":""Mozilla/5.0 (Macintosh; Intel Mac OS X 10_14_4) AppleWebKit/537.36 (KHTML, like Gecko) Chrome/74.0.3729.169 Safari/537.36"",""on_chrome"":true,""on_mobile"":false,""language"":""en-US"",""screen_resolution"":[1440,900],""platform"":""MacIntel"",""timezone"":""Europe/Berlin""}","16","3031.8350000032574","","","1558516457603","3","","Ingolstadt","[]","Ingolstadt","true","false","4007.1200000020326"
"","html-voicekey-response","34","312169","0.0-4.30-0.30","2cxdpsu3uj2eu8h","{""user_agent"":""Mozilla/5.0 (Macintosh; Intel Mac OS X 10_14_4) AppleWebKit/537.36 (KHTML, like Gecko) Chrome/74.0.3729.169 Safari/537.36"",""on_chrome"":true,""on_mobile"":false,""language"":""en-US"",""screen_resolution"":[1440,900],""platform"":""MacIntel"",""timezone"":""Europe/Berlin""}","16","1721.28500000129","","","1558516462214","1","","Magdeburg","[]","Magdeburg","true","false","2363.1850000019767"
"","html-voicekey-response","35","315741","0.0-4.31-0.31","2cxdpsu3uj2eu8h","{""user_agent"":""Mozilla/5.0 (Macintosh; Intel Mac OS X 10_14_4) AppleWebKit/537.36 (KHTML, like Gecko) Chrome/74.0.3729.169 Safari/537.36"",""on_chrome"":true,""on_mobile"":false,""language"":""en-US"",""screen_resolution"":[1440,900],""platform"":""MacIntel"",""timezone"":""Europe/Berlin""}","16","2091.499999996659","","","1558516465184","9","","München","[]","München","true","true","2966.809999998077"
"","html-voicekey-response","36","322224","0.0-4.32-0.32","2cxdpsu3uj2eu8h","{""user_agent"":""Mozilla/5.0 (Macintosh; Intel Mac OS X 10_14_4) AppleWebKit/537.36 (KHTML, like Gecko) Chrome/74.0.3729.169 Safari/537.36"",""on_chrome"":true,""on_mobile"":false,""language"":""en-US"",""screen_resolution"":[1440,900],""platform"":""MacIntel"",""timezone"":""Europe/Berlin""}","16","5020.664999998035","","","1558516468754","5","","Aachen","[]","Aachen","true","false","5879.885000002105"
"","html-voicekey-response","37","325033","0.0-4.33-0.33","2cxdpsu3uj2eu8h","{""user_agent"":""Mozilla/5.0 (Macintosh; Intel Mac OS X 10_14_4) AppleWebKit/537.36 (KHTML, like Gecko) Chrome/74.0.3729.169 Safari/537.36"",""on_chrome"":true,""on_mobile"":false,""language"":""en-US"",""screen_resolution"":[1440,900],""platform"":""MacIntel"",""timezone"":""Europe/Berlin""}","16","1580.580000003311","","","1558516475237","9","","München","[]","München","true","false","2206.2950000035926"
"","html-voicekey-response","38","329532","0.0-4.34-0.34","2cxdpsu3uj2eu8h","{""user_agent"":""Mozilla/5.0 (Macintosh; Intel Mac OS X 10_14_4) AppleWebKit/537.36 (KHTML, like Gecko) Chrome/74.0.3729.169 Safari/537.36"",""on_chrome"":true,""on_mobile"":false,""language"":""en-US"",""screen_resolution"":[1440,900],""platform"":""MacIntel"",""timezone"":""Europe/Berlin""}","16","3204.569999996084","","","1558516478046","8","","Gotha","[]","Gotha","true","false","3896.6699999946286"
"","html-voicekey-response","39","333732","0.0-4.35-0.35","2cxdpsu3uj2eu8h","{""user_agent"":""Mozilla/5.0 (Macintosh; Intel Mac OS X 10_14_4) AppleWebKit/537.36 (KHTML, like Gecko) Chrome/74.0.3729.169 Safari/537.36"",""on_chrome"":true,""on_mobile"":false,""language"":""en-US"",""screen_resolution"":[1440,900],""platform"":""MacIntel"",""timezone"":""Europe/Berlin""}","16","1837.9800000055461","","","1558516482545","4","","Würzburg","[]","Würzburg","true","false","3596.7149999996764"
"","html-voicekey-response","40","336907","0.0-4.36-0.36","2cxdpsu3uj2eu8h","{""user_agent"":""Mozilla/5.0 (Macintosh; Intel Mac OS X 10_14_4) AppleWebKit/537.36 (KHTML, like Gecko) Chrome/74.0.3729.169 Safari/537.36"",""on_chrome"":true,""on_mobile"":false,""language"":""en-US"",""screen_resolution"":[1440,900],""platform"":""MacIntel"",""timezone"":""Europe/Berlin""}","16","2079.9249999998488","","","1558516486745","3","","Ingolstadt","[]","Ingolstadt","true","false","2571.5800000034506"
"","html-voicekey-response","41","340174","0.0-4.37-0.37","2cxdpsu3uj2eu8h","{""user_agent"":""Mozilla/5.0 (Macintosh; Intel Mac OS X 10_14_4) AppleWebKit/537.36 (KHTML, like Gecko) Chrome/74.0.3729.169 Safari/537.36"",""on_chrome"":true,""on_mobile"":false,""language"":""en-US"",""screen_resolution"":[1440,900],""platform"":""MacIntel"",""timezone"":""Europe/Berlin""}","16","1738.5999999986147","","","1558516489920","10","","Heidelberg","[]","Heidelberg","true","true","2663.865000002261"
"","html-voicekey-response","42","343590","0.0-4.38-0.38","2cxdpsu3uj2eu8h","{""user_agent"":""Mozilla/5.0 (Macintosh; Intel Mac OS X 10_14_4) AppleWebKit/537.36 (KHTML, like Gecko) Chrome/74.0.3729.169 Safari/537.36"",""on_chrome"":true,""on_mobile"":false,""language"":""en-US"",""screen_resolution"":[1440,900],""platform"":""MacIntel"",""timezone"":""Europe/Berlin""}","16","1837.1449999993552","","","1558516493188","11","","Alfeld","[]","Alfeld","true","true","2812.404999996943"
"","html-voicekey-response","43","348214","0.0-4.39-0.39","2cxdpsu3uj2eu8h","{""user_agent"":""Mozilla/5.0 (Macintosh; Intel Mac OS X 10_14_4) AppleWebKit/537.36 (KHTML, like Gecko) Chrome/74.0.3729.169 Safari/537.36"",""on_chrome"":true,""on_mobile"":false,""language"":""en-US"",""screen_resolution"":[1440,900],""platform"":""MacIntel"",""timezone"":""Europe/Berlin""}","16","3252.0450000027545","","","1558516496605","10","","Heidelberg","[]","Heidelberg","true","false","4019.0999999977066"
"","html-voicekey-response","44","350930","0.0-4.40-0.40","2cxdpsu3uj2eu8h","{""user_agent"":""Mozilla/5.0 (Macintosh; Intel Mac OS X 10_14_4) AppleWebKit/537.36 (KHTML, like Gecko) Chrome/74.0.3729.169 Safari/537.36"",""on_chrome"":true,""on_mobile"":false,""language"":""en-US"",""screen_resolution"":[1440,900],""platform"":""MacIntel"",""timezone"":""Europe/Berlin""}","16","1435.6700000006008","","","1558516501230","11","","Alfeld","[]","Alfeld","true","false","2110.7649999976275"
"","html-voicekey-response","45","359048","0.0-4.41-0.41","2cxdpsu3uj2eu8h","{""user_agent"":""Mozilla/5.0 (Macintosh; Intel Mac OS X 10_14_4) AppleWebKit/537.36 (KHTML, like Gecko) Chrome/74.0.3729.169 Safari/537.36"",""on_chrome"":true,""on_mobile"":false,""language"":""en-US"",""screen_resolution"":[1440,900],""platform"":""MacIntel"",""timezone"":""Europe/Berlin""}","16","2618.0400000028662","","","1558516503947","5","","","[]","Aachen","false","false","4110.195000001113"
"","html-voicekey-response","46","362338","0.0-4.42-0.42","2cxdpsu3uj2eu8h","{""user_agent"":""Mozilla/5.0 (Macintosh; Intel Mac OS X 10_14_4) AppleWebKit/537.36 (KHTML, like Gecko) Chrome/74.0.3729.169 Safari/537.36"",""on_chrome"":true,""on_mobile"":false,""language"":""en-US"",""screen_resolution"":[1440,900],""platform"":""MacIntel"",""timezone"":""Europe/Berlin""}","16","2025.8749999937486","","","1558516512063","12","","Dessau","[]","Dessau","true","true","2685.314999995171"
"","html-voicekey-response","47","365621","0.0-4.43-0.43","2cxdpsu3uj2eu8h","{""user_agent"":""Mozilla/5.0 (Macintosh; Intel Mac OS X 10_14_4) AppleWebKit/537.36 (KHTML, like Gecko) Chrome/74.0.3729.169 Safari/537.36"",""on_chrome"":true,""on_mobile"":false,""language"":""en-US"",""screen_resolution"":[1440,900],""platform"":""MacIntel"",""timezone"":""Europe/Berlin""}","16","1721.3299999946962","","","1558516515351","13","","Chemnitz","[]","Chemnitz","true","true","2680.144999998447"
"","html-voicekey-response","48","367929","0.0-4.44-0.44","2cxdpsu3uj2eu8h","{""user_agent"":""Mozilla/5.0 (Macintosh; Intel Mac OS X 10_14_4) AppleWebKit/537.36 (KHTML, like Gecko) Chrome/74.0.3729.169 Safari/537.36"",""on_chrome"":true,""on_mobile"":false,""language"":""en-US"",""screen_resolution"":[1440,900],""platform"":""MacIntel"",""timezone"":""Europe/Berlin""}","16","1146.7500000015484","","","1558516518634","12","","Dessau","[]","Dessau","true","false","1704.7099999981583"
"","html-voicekey-response","49","370179","0.0-4.45-0.45","2cxdpsu3uj2eu8h","{""user_agent"":""Mozilla/5.0 (Macintosh; Intel Mac OS X 10_14_4) AppleWebKit/537.36 (KHTML, like Gecko) Chrome/74.0.3729.169 Safari/537.36"",""on_chrome"":true,""on_mobile"":false,""language"":""en-US"",""screen_resolution"":[1440,900],""platform"":""MacIntel"",""timezone"":""Europe/Berlin""}","16","1154.7750000043657","","","1558516520942","13","","Chemnitz","[]","Chemnitz","true","false","1646.9100000031176"
"","html-voicekey-response","50","382162","0.0-4.46-0.46","2cxdpsu3uj2eu8h","{""user_agent"":""Mozilla/5.0 (Macintosh; Intel Mac OS X 10_14_4) AppleWebKit/537.36 (KHTML, like Gecko) Chrome/74.0.3729.169 Safari/537.36"",""on_chrome"":true,""on_mobile"":false,""language"":""en-US"",""screen_resolution"":[1440,900],""platform"":""MacIntel"",""timezone"":""Europe/Berlin""}","16","10971.155000000936","","","1558516523192","8","","Gotha","[]","Gotha","true","false","11380.044999998063"
"","html-voicekey-response","51","386329","0.0-4.47-0.47","2cxdpsu3uj2eu8h","{""user_agent"":""Mozilla/5.0 (Macintosh; Intel Mac OS X 10_14_4) AppleWebKit/537.36 (KHTML, like Gecko) Chrome/74.0.3729.169 Safari/537.36"",""on_chrome"":true,""on_mobile"":false,""language"":""en-US"",""screen_resolution"":[1440,900],""platform"":""MacIntel"",""timezone"":""Europe/Berlin""}","16","2288.9150000063005","","","1558516535175","9","","München","[]","München","true","false","3563.8050000052317"
"","html-voicekey-response","52","389145","0.0-4.48-0.48","2cxdpsu3uj2eu8h","{""user_agent"":""Mozilla/5.0 (Macintosh; Intel Mac OS X 10_14_4) AppleWebKit/537.36 (KHTML, like Gecko) Chrome/74.0.3729.169 Safari/537.36"",""on_chrome"":true,""on_mobile"":false,""language"":""en-US"",""screen_resolution"":[1440,900],""platform"":""MacIntel"",""timezone"":""Europe/Berlin""}","16","1604.779999995872","","","1558516539342","2","","Berlin","[]","Berlin","true","false","2213.1049999952666"
"","html-voicekey-response","53","392495","0.0-4.49-0.49","2cxdpsu3uj2eu8h","{""user_agent"":""Mozilla/5.0 (Macintosh; Intel Mac OS X 10_14_4) AppleWebKit/537.36 (KHTML, like Gecko) Chrome/74.0.3729.169 Safari/537.36"",""on_chrome"":true,""on_mobile"":false,""language"":""en-US"",""screen_resolution"":[1440,900],""platform"":""MacIntel"",""timezone"":""Europe/Berlin""}","16","1921.5100000017906","","","1558516542158","6","","Dresden","[]","Dresden","true","false","2747.094999998808"
"","html-voicekey-response","54","397454","0.0-4.50-0.50","2cxdpsu3uj2eu8h","{""user_agent"":""Mozilla/5.0 (Macintosh; Intel Mac OS X 10_14_4) AppleWebKit/537.36 (KHTML, like Gecko) Chrome/74.0.3729.169 Safari/537.36"",""on_chrome"":true,""on_mobile"":false,""language"":""en-US"",""screen_resolution"":[1440,900],""platform"":""MacIntel"",""timezone"":""Europe/Berlin""}","16","3663.504999998468","","","1558516545508","3","","Ingolstadt","[]","Ingolstadt","true","false","4355.945000002976"
"","html-voicekey-response","55","401470","0.0-4.51-0.51","2cxdpsu3uj2eu8h","{""user_agent"":""Mozilla/5.0 (Macintosh; Intel Mac OS X 10_14_4) AppleWebKit/537.36 (KHTML, like Gecko) Chrome/74.0.3729.169 Safari/537.36"",""on_chrome"":true,""on_mobile"":false,""language"":""en-US"",""screen_resolution"":[1440,900],""platform"":""MacIntel"",""timezone"":""Europe/Berlin""}","16","2487.7050000012155","","","1558516550467","10","","Heidelberg","[]","Heidelberg","true","false","3413.4550000017043"
"","html-voicekey-response","56","412037","0.0-4.52-0.52","2cxdpsu3uj2eu8h","{""user_agent"":""Mozilla/5.0 (Macintosh; Intel Mac OS X 10_14_4) AppleWebKit/537.36 (KHTML, like Gecko) Chrome/74.0.3729.169 Safari/537.36"",""on_chrome"":true,""on_mobile"":false,""language"":""en-US"",""screen_resolution"":[1440,900],""platform"":""MacIntel"",""timezone"":""Europe/Berlin""}","16","4721.055000003462","","","1558516554484","5","","","[]","Aachen","false","false","6561.815000000934"
"","html-voicekey-response","57","420281","0.0-4.53-0.53","2cxdpsu3uj2eu8h","{""user_agent"":""Mozilla/5.0 (Macintosh; Intel Mac OS X 10_14_4) AppleWebKit/537.36 (KHTML, like Gecko) Chrome/74.0.3729.169 Safari/537.36"",""on_chrome"":true,""on_mobile"":false,""language"":""en-US"",""screen_resolution"":[1440,900],""platform"":""MacIntel"",""timezone"":""Europe/Berlin""}","16","3682.64500000244","","","1558516565050","11","","","[]","Alfeld","false","false","4240.924999998242"
"","html-voicekey-response","58","424809","0.0-4.54-0.54","2cxdpsu3uj2eu8h","{""user_agent"":""Mozilla/5.0 (Macintosh; Intel Mac OS X 10_14_4) AppleWebKit/537.36 (KHTML, like Gecko) Chrome/74.0.3729.169 Safari/537.36"",""on_chrome"":true,""on_mobile"":false,""language"":""en-US"",""screen_resolution"":[1440,900],""platform"":""MacIntel"",""timezone"":""Europe/Berlin""}","16","3337.22500000461","","","1558516573295","8","","Gotha","[]","Gotha","true","false","3924.105000005511"
"","html-voicekey-response","59","430042","0.0-4.55-0.55","2cxdpsu3uj2eu8h","{""user_agent"":""Mozilla/5.0 (Macintosh; Intel Mac OS X 10_14_4) AppleWebKit/537.36 (KHTML, like Gecko) Chrome/74.0.3729.169 Safari/537.36"",""on_chrome"":true,""on_mobile"":false,""language"":""en-US"",""screen_resolution"":[1440,900],""platform"":""MacIntel"",""timezone"":""Europe/Berlin""}","16","3838.2599999984727","","","1558516577822","3","","Ingolstadt","[]","Ingolstadt","true","false","4630.264999999781"
"","html-voicekey-response","60","439787","0.0-4.56-0.56","2cxdpsu3uj2eu8h","{""user_agent"":""Mozilla/5.0 (Macintosh; Intel Mac OS X 10_14_4) AppleWebKit/537.36 (KHTML, like Gecko) Chrome/74.0.3729.169 Safari/537.36"",""on_chrome"":true,""on_mobile"":false,""language"":""en-US"",""screen_resolution"":[1440,900],""platform"":""MacIntel"",""timezone"":""Europe/Berlin""}","16","4371.394999996328","","","1558516583055","12","","","[]","Dessau","false","false","5741.974999997183"
"","html-voicekey-response","61","450003","0.0-4.57-0.57","2cxdpsu3uj2eu8h","{""user_agent"":""Mozilla/5.0 (Macintosh; Intel Mac OS X 10_14_4) AppleWebKit/537.36 (KHTML, like Gecko) Chrome/74.0.3729.169 Safari/537.36"",""on_chrome"":true,""on_mobile"":false,""language"":""en-US"",""screen_resolution"":[1440,900],""platform"":""MacIntel"",""timezone"":""Europe/Berlin""}","16","4853.305000005848","","","1558516592801","13","","","[]","Chemnitz","false","false","6211.855000001378"
"","html-voicekey-response","62","458711","0.0-4.58-0.58","2cxdpsu3uj2eu8h","{""user_agent"":""Mozilla/5.0 (Macintosh; Intel Mac OS X 10_14_4) AppleWebKit/537.36 (KHTML, like Gecko) Chrome/74.0.3729.169 Safari/537.36"",""on_chrome"":true,""on_mobile"":false,""language"":""en-US"",""screen_resolution"":[1440,900],""platform"":""MacIntel"",""timezone"":""Europe/Berlin""}","16","3261.93000000224","","","1558516603017","4","","","[]","Würzburg","false","false","4704.134999999951"
"","html-voicekey-response","63","464535","0.0-4.59-0.59","2cxdpsu3uj2eu8h","{""user_agent"":""Mozilla/5.0 (Macintosh; Intel Mac OS X 10_14_4) AppleWebKit/537.36 (KHTML, like Gecko) Chrome/74.0.3729.169 Safari/537.36"",""on_chrome"":true,""on_mobile"":false,""language"":""en-US"",""screen_resolution"":[1440,900],""platform"":""MacIntel"",""timezone"":""Europe/Berlin""}","16","4553.605000002635","","","1558516611725","8","","Gotha","[]","Gotha","true","false","5219.805000000633"
"","html-voicekey-response","64","467568","0.0-4.60-0.60","2cxdpsu3uj2eu8h","{""user_agent"":""Mozilla/5.0 (Macintosh; Intel Mac OS X 10_14_4) AppleWebKit/537.36 (KHTML, like Gecko) Chrome/74.0.3729.169 Safari/537.36"",""on_chrome"":true,""on_mobile"":false,""language"":""en-US"",""screen_resolution"":[1440,900],""platform"":""MacIntel"",""timezone"":""Europe/Berlin""}","16","1936.4300000032295","","","1558516617549","3","","Ingolstadt","[]","Ingolstadt","true","false","2428.5150000068825"
"","html-voicekey-response","65","479318","0.0-4.61-0.61","2cxdpsu3uj2eu8h","{""user_agent"":""Mozilla/5.0 (Macintosh; Intel Mac OS X 10_14_4) AppleWebKit/537.36 (KHTML, like Gecko) Chrome/74.0.3729.169 Safari/537.36"",""on_chrome"":true,""on_mobile"":false,""language"":""en-US"",""screen_resolution"":[1440,900],""platform"":""MacIntel"",""timezone"":""Europe/Berlin""}","16","100","","","1558516620581","11","","","[]","Alfeld","false","false","7746.240000000398"
"","html-voicekey-response","66","488000","0.0-4.62-0.62","2cxdpsu3uj2eu8h","{""user_agent"":""Mozilla/5.0 (Macintosh; Intel Mac OS X 10_14_4) AppleWebKit/537.36 (KHTML, like Gecko) Chrome/74.0.3729.169 Safari/537.36"",""on_chrome"":true,""on_mobile"":false,""language"":""en-US"",""screen_resolution"":[1440,900],""platform"":""MacIntel"",""timezone"":""Europe/Berlin""}","16","2918.8250000023168","","","1558516632332","4","","","[]","Würzburg","false","false","4678.500000001804"
"","html-voicekey-response","67","491393","0.0-4.63-0.63","2cxdpsu3uj2eu8h","{""user_agent"":""Mozilla/5.0 (Macintosh; Intel Mac OS X 10_14_4) AppleWebKit/537.36 (KHTML, like Gecko) Chrome/74.0.3729.169 Safari/537.36"",""on_chrome"":true,""on_mobile"":false,""language"":""en-US"",""screen_resolution"":[1440,900],""platform"":""MacIntel"",""timezone"":""Europe/Berlin""}","16","2120.8100000020117","","","1558516641014","12","","Dessau","[]","Dessau","true","false","2788.4200000044075"
"","html-voicekey-response","68","506526","0.0-4.64-0.64","2cxdpsu3uj2eu8h","{""user_agent"":""Mozilla/5.0 (Macintosh; Intel Mac OS X 10_14_4) AppleWebKit/537.36 (KHTML, like Gecko) Chrome/74.0.3729.169 Safari/537.36"",""on_chrome"":true,""on_mobile"":false,""language"":""en-US"",""screen_resolution"":[1440,900],""platform"":""MacIntel"",""timezone"":""Europe/Berlin""}","16","10086.180000000086","","","1558516644407","5","","","[]","Aachen","false","false","11128.12500000291"
"","html-voicekey-response","69","516757","0.0-4.65-0.65","2cxdpsu3uj2eu8h","{""user_agent"":""Mozilla/5.0 (Macintosh; Intel Mac OS X 10_14_4) AppleWebKit/537.36 (KHTML, like Gecko) Chrome/74.0.3729.169 Safari/537.36"",""on_chrome"":true,""on_mobile"":false,""language"":""en-US"",""screen_resolution"":[1440,900],""platform"":""MacIntel"",""timezone"":""Europe/Berlin""}","16","5480.510000002896","","","1558516659541","13","","","[]","Chemnitz","false","false","6222.585000003164"
"","html-voicekey-response","70","521774","0.0-4.66-0.66","2cxdpsu3uj2eu8h","{""user_agent"":""Mozilla/5.0 (Macintosh; Intel Mac OS X 10_14_4) AppleWebKit/537.36 (KHTML, like Gecko) Chrome/74.0.3729.169 Safari/537.36"",""on_chrome"":true,""on_mobile"":false,""language"":""en-US"",""screen_resolution"":[1440,900],""platform"":""MacIntel"",""timezone"":""Europe/Berlin""}","16","3721.879999998992","","","1558516669771","8","","Gotha","[]","Gotha","true","false","4413.2749999989755"
"","html-voicekey-response","71","524793","0.0-4.67-0.67","2cxdpsu3uj2eu8h","{""user_agent"":""Mozilla/5.0 (Macintosh; Intel Mac OS X 10_14_4) AppleWebKit/537.36 (KHTML, like Gecko) Chrome/74.0.3729.169 Safari/537.36"",""on_chrome"":true,""on_mobile"":false,""language"":""en-US"",""screen_resolution"":[1440,900],""platform"":""MacIntel"",""timezone"":""Europe/Berlin""}","16","1671.1049999956508","","","1558516674788","3","","Ingolstadt","[]","Ingolstadt","true","false","2412.964999995893"
"","html-voicekey-response","72","531583","0.0-4.68-0.68","2cxdpsu3uj2eu8h","{""user_agent"":""Mozilla/5.0 (Macintosh; Intel Mac OS X 10_14_4) AppleWebKit/537.36 (KHTML, like Gecko) Chrome/74.0.3729.169 Safari/537.36"",""on_chrome"":true,""on_mobile"":false,""language"":""en-US"",""screen_resolution"":[1440,900],""platform"":""MacIntel"",""timezone"":""Europe/Berlin""}","16","1560.540000000247","","","1558516677807","11","","","[]","Alfeld","false","false","2785.5650000056485"
"","html-voicekey-response","73","544149","0.0-4.69-0.69","2cxdpsu3uj2eu8h","{""user_agent"":""Mozilla/5.0 (Macintosh; Intel Mac OS X 10_14_4) AppleWebKit/537.36 (KHTML, like Gecko) Chrome/74.0.3729.169 Safari/537.36"",""on_chrome"":true,""on_mobile"":false,""language"":""en-US"",""screen_resolution"":[1440,900],""platform"":""MacIntel"",""timezone"":""Europe/Berlin""}","16","7336.689999998058","","","1558516684597","5","","","[]","Aachen","false","false","8561.260000002221"
"","html-voicekey-response","74","548595","0.0-4.70-0.70","2cxdpsu3uj2eu8h","{""user_agent"":""Mozilla/5.0 (Macintosh; Intel Mac OS X 10_14_4) AppleWebKit/537.36 (KHTML, like Gecko) Chrome/74.0.3729.169 Safari/537.36"",""on_chrome"":true,""on_mobile"":false,""language"":""en-US"",""screen_resolution"":[1440,900],""platform"":""MacIntel"",""timezone"":""Europe/Berlin""}","16","3015.989999994263","","","1558516697163","4","","Würzburg","[]","Würzburg","true","false","3841.389999994193"
"","html-voicekey-response","75","565061","0.0-4.71-0.71","2cxdpsu3uj2eu8h","{""user_agent"":""Mozilla/5.0 (Macintosh; Intel Mac OS X 10_14_4) AppleWebKit/537.36 (KHTML, like Gecko) Chrome/74.0.3729.169 Safari/537.36"",""on_chrome"":true,""on_mobile"":false,""language"":""en-US"",""screen_resolution"":[1440,900],""platform"":""MacIntel"",""timezone"":""Europe/Berlin""}","16","10753.165000003506","","","1558516701609","5","","","[]","Aachen","false","false","12461.7750000034"
"","html-voicekey-response","76","572543","0.0-4.72-0.72","2cxdpsu3uj2eu8h","{""user_agent"":""Mozilla/5.0 (Macintosh; Intel Mac OS X 10_14_4) AppleWebKit/537.36 (KHTML, like Gecko) Chrome/74.0.3729.169 Safari/537.36"",""on_chrome"":true,""on_mobile"":false,""language"":""en-US"",""screen_resolution"":[1440,900],""platform"":""MacIntel"",""timezone"":""Europe/Berlin""}","16","1569.2250000008848","","","1558516718076","11","","","[]","Alfeld","false","false","3477.0050000005867"
"","html-voicekey-response","77","580638","0.0-4.73-0.73","2cxdpsu3uj2eu8h","{""user_agent"":""Mozilla/5.0 (Macintosh; Intel Mac OS X 10_14_4) AppleWebKit/537.36 (KHTML, like Gecko) Chrome/74.0.3729.169 Safari/537.36"",""on_chrome"":true,""on_mobile"":false,""language"":""en-US"",""screen_resolution"":[1440,900],""platform"":""MacIntel"",""timezone"":""Europe/Berlin""}","16","3453.7449999933365","","","1558516725558","13","","","[]","Chemnitz","false","false","4090.554999995278"
"","html-voicekey-response","78","586857","0.0-4.74-0.74","2cxdpsu3uj2eu8h","{""user_agent"":""Mozilla/5.0 (Macintosh; Intel Mac OS X 10_14_4) AppleWebKit/537.36 (KHTML, like Gecko) Chrome/74.0.3729.169 Safari/537.36"",""on_chrome"":true,""on_mobile"":false,""language"":""en-US"",""screen_resolution"":[1440,900],""platform"":""MacIntel"",""timezone"":""Europe/Berlin""}","16","5037.440000001783","","","1558516733653","5","","Aachen","[]","Aachen","true","false","5612.86000000115"
"","html-voicekey-response","79","590667","0.0-4.75-0.75","2cxdpsu3uj2eu8h","{""user_agent"":""Mozilla/5.0 (Macintosh; Intel Mac OS X 10_14_4) AppleWebKit/537.36 (KHTML, like Gecko) Chrome/74.0.3729.169 Safari/537.36"",""on_chrome"":true,""on_mobile"":false,""language"":""en-US"",""screen_resolution"":[1440,900],""platform"":""MacIntel"",""timezone"":""Europe/Berlin""}","16","2729.919999999553","","","1558516739871","8","","Gotha","[]","Gotha","true","false","3206.1350000003586"
"","html-voicekey-response","80","594084","0.0-4.76-0.76","2cxdpsu3uj2eu8h","{""user_agent"":""Mozilla/5.0 (Macintosh; Intel Mac OS X 10_14_4) AppleWebKit/537.36 (KHTML, like Gecko) Chrome/74.0.3729.169 Safari/537.36"",""on_chrome"":true,""on_mobile"":false,""language"":""en-US"",""screen_resolution"":[1440,900],""platform"":""MacIntel"",""timezone"":""Europe/Berlin""}","16","2204.019999999064","","","1558516743682","10","","Heidelberg","[]","Heidelberg","true","false","2812.509999996051"
"","html-voicekey-response","81","596568","0.0-4.77-0.77","2cxdpsu3uj2eu8h","{""user_agent"":""Mozilla/5.0 (Macintosh; Intel Mac OS X 10_14_4) AppleWebKit/537.36 (KHTML, like Gecko) Chrome/74.0.3729.169 Safari/537.36"",""on_chrome"":true,""on_mobile"":false,""language"":""en-US"",""screen_resolution"":[1440,900],""platform"":""MacIntel"",""timezone"":""Europe/Berlin""}","16","1519.4750000027475","","","1558516747100","4","","Würzburg","[]","Würzburg","true","false","1878.2050000010058"
"","html-voicekey-response","82","599491","0.0-4.78-0.78","2cxdpsu3uj2eu8h","{""user_agent"":""Mozilla/5.0 (Macintosh; Intel Mac OS X 10_14_4) AppleWebKit/537.36 (KHTML, like Gecko) Chrome/74.0.3729.169 Safari/537.36"",""on_chrome"":true,""on_mobile"":false,""language"":""en-US"",""screen_resolution"":[1440,900],""platform"":""MacIntel"",""timezone"":""Europe/Berlin""}","16","100","","","1558516749584","9","","München","[]","München","true","false","2317.7649999996647"
"","html-voicekey-response","83","611024","0.0-4.79-0.79","2cxdpsu3uj2eu8h","{""user_agent"":""Mozilla/5.0 (Macintosh; Intel Mac OS X 10_14_4) AppleWebKit/537.36 (KHTML, like Gecko) Chrome/74.0.3729.169 Safari/537.36"",""on_chrome"":true,""on_mobile"":false,""language"":""en-US"",""screen_resolution"":[1440,900],""platform"":""MacIntel"",""timezone"":""Europe/Berlin""}","16","6169.619999994966","","","1558516752506","13","","","[]","Chemnitz","false","false","7528.449999997974"
"","html-voicekey-response","84","617298","0.0-4.80-0.80","2cxdpsu3uj2eu8h","{""user_agent"":""Mozilla/5.0 (Macintosh; Intel Mac OS X 10_14_4) AppleWebKit/537.36 (KHTML, like Gecko) Chrome/74.0.3729.169 Safari/537.36"",""on_chrome"":true,""on_mobile"":false,""language"":""en-US"",""screen_resolution"":[1440,900],""platform"":""MacIntel"",""timezone"":""Europe/Berlin""}","16","4660.884999999171","","","1558516764039","5","","Aachen","[]","Aachen","true","false","5668.955000001006"
"","html-voicekey-response","85","626573","0.0-4.81-0.81","2cxdpsu3uj2eu8h","{""user_agent"":""Mozilla/5.0 (Macintosh; Intel Mac OS X 10_14_4) AppleWebKit/537.36 (KHTML, like Gecko) Chrome/74.0.3729.169 Safari/537.36"",""on_chrome"":true,""on_mobile"":false,""language"":""en-US"",""screen_resolution"":[1440,900],""platform"":""MacIntel"",""timezone"":""Europe/Berlin""}","16","3870.1149999996182","","","1558516770313","11","","","[]","Alfeld","false","false","5270.234999996377"
"","html-voicekey-response","86","630308","0.0-4.82-0.82","2cxdpsu3uj2eu8h","{""user_agent"":""Mozilla/5.0 (Macintosh; Intel Mac OS X 10_14_4) AppleWebKit/537.36 (KHTML, like Gecko) Chrome/74.0.3729.169 Safari/537.36"",""on_chrome"":true,""on_mobile"":false,""language"":""en-US"",""screen_resolution"":[1440,900],""platform"":""MacIntel"",""timezone"":""Europe/Berlin""}","16","2367.7199999964564","","","1558516779590","8","","Gotha","[]","Gotha","true","false","3126.9800000009127"
"","html-voicekey-response","87","633931","0.0-4.83-0.83","2cxdpsu3uj2eu8h","{""user_agent"":""Mozilla/5.0 (Macintosh; Intel Mac OS X 10_14_4) AppleWebKit/537.36 (KHTML, like Gecko) Chrome/74.0.3729.169 Safari/537.36"",""on_chrome"":true,""on_mobile"":false,""language"":""en-US"",""screen_resolution"":[1440,900],""platform"":""MacIntel"",""timezone"":""Europe/Berlin""}","16","2141.8700000011363","","","1558516783323","5","","Aachen","[]","Aachen","true","false","3017.359999998007"
"","html-voicekey-response","88","637814","0.0-4.84-0.84","2cxdpsu3uj2eu8h","{""user_agent"":""Mozilla/5.0 (Macintosh; Intel Mac OS X 10_14_4) AppleWebKit/537.36 (KHTML, like Gecko) Chrome/74.0.3729.169 Safari/537.36"",""on_chrome"":true,""on_mobile"":false,""language"":""en-US"",""screen_resolution"":[1440,900],""platform"":""MacIntel"",""timezone"":""Europe/Berlin""}","16","2602.1550000021","","","1558516786946","3","","Ingolstadt","[]","Ingolstadt","true","false","3277.4199999985285"
"","html-voicekey-response","89","641398","0.0-4.85-0.85","2cxdpsu3uj2eu8h","{""user_agent"":""Mozilla/5.0 (Macintosh; Intel Mac OS X 10_14_4) AppleWebKit/537.36 (KHTML, like Gecko) Chrome/74.0.3729.169 Safari/537.36"",""on_chrome"":true,""on_mobile"":false,""language"":""en-US"",""screen_resolution"":[1440,900],""platform"":""MacIntel"",""timezone"":""Europe/Berlin""}","16","2338.1799999931595","","","1558516790827","4","","Würzburg","[]","Würzburg","true","false","2980.5399999967776"
"","html-voicekey-response","90","645175","0.0-4.86-0.86","2cxdpsu3uj2eu8h","{""user_agent"":""Mozilla/5.0 (Macintosh; Intel Mac OS X 10_14_4) AppleWebKit/537.36 (KHTML, like Gecko) Chrome/74.0.3729.169 Safari/537.36"",""on_chrome"":true,""on_mobile"":false,""language"":""en-US"",""screen_resolution"":[1440,900],""platform"":""MacIntel"",""timezone"":""Europe/Berlin""}","16","2479.6949999962003","","","1558516794413","11","","Alfeld","[]","Alfeld","true","false","3171.764999999199"
"","html-voicekey-response","91","647842","0.0-4.87-0.87","2cxdpsu3uj2eu8h","{""user_agent"":""Mozilla/5.0 (Macintosh; Intel Mac OS X 10_14_4) AppleWebKit/537.36 (KHTML, like Gecko) Chrome/74.0.3729.169 Safari/537.36"",""on_chrome"":true,""on_mobile"":false,""language"":""en-US"",""screen_resolution"":[1440,900],""platform"":""MacIntel"",""timezone"":""Europe/Berlin""}","16","1636.155000001751","","","1558516798191","7","","Erfurt","[]","Erfurt","true","false","2061.2699999982724"
"","html-voicekey-response","92","655893","0.0-4.88-0.88","2cxdpsu3uj2eu8h","{""user_agent"":""Mozilla/5.0 (Macintosh; Intel Mac OS X 10_14_4) AppleWebKit/537.36 (KHTML, like Gecko) Chrome/74.0.3729.169 Safari/537.36"",""on_chrome"":true,""on_mobile"":false,""language"":""en-US"",""screen_resolution"":[1440,900],""platform"":""MacIntel"",""timezone"":""Europe/Berlin""}","16","3069.1200000017184","","","1558516800858","13","","","[]","Chemnitz","false","false","4045.169999997597"
"","html-voicekey-response","93","659267","0.0-4.89-0.89","2cxdpsu3uj2eu8h","{""user_agent"":""Mozilla/5.0 (Macintosh; Intel Mac OS X 10_14_4) AppleWebKit/537.36 (KHTML, like Gecko) Chrome/74.0.3729.169 Safari/537.36"",""on_chrome"":true,""on_mobile"":false,""language"":""en-US"",""screen_resolution"":[1440,900],""platform"":""MacIntel"",""timezone"":""Europe/Berlin""}","16","2309.5449999980397","","","1558516808908","5","","Aachen","[]","Aachen","true","false","2769.3900000012945"
"","html-voicekey-response","94","662984","0.0-4.90-0.90","2cxdpsu3uj2eu8h","{""user_agent"":""Mozilla/5.0 (Macintosh; Intel Mac OS X 10_14_4) AppleWebKit/537.36 (KHTML, like Gecko) Chrome/74.0.3729.169 Safari/537.36"",""on_chrome"":true,""on_mobile"":false,""language"":""en-US"",""screen_resolution"":[1440,900],""platform"":""MacIntel"",""timezone"":""Europe/Berlin""}","16","2551.2200000028593","","","1558516812284","1","","Magdeburg","[]","Magdeburg","true","false","3109.8400000045076"
"","html-voicekey-response","95","667375","0.0-4.91-0.91","2cxdpsu3uj2eu8h","{""user_agent"":""Mozilla/5.0 (Macintosh; Intel Mac OS X 10_14_4) AppleWebKit/537.36 (KHTML, like Gecko) Chrome/74.0.3729.169 Safari/537.36"",""on_chrome"":true,""on_mobile"":false,""language"":""en-US"",""screen_resolution"":[1440,900],""platform"":""MacIntel"",""timezone"":""Europe/Berlin""}","16","3275.7650000002236","","","1558516816000","5","","Aachen","[]","Aachen","true","false","3784.50000000163"
"","html-voicekey-response","96","670391","0.0-4.92-0.92","2cxdpsu3uj2eu8h","{""user_agent"":""Mozilla/5.0 (Macintosh; Intel Mac OS X 10_14_4) AppleWebKit/537.36 (KHTML, like Gecko) Chrome/74.0.3729.169 Safari/537.36"",""on_chrome"":true,""on_mobile"":false,""language"":""en-US"",""screen_resolution"":[1440,900],""platform"":""MacIntel"",""timezone"":""Europe/Berlin""}","16","1551.124999999744","","","1558516820392","14","","Potsdam","[]","Potsdam","true","true","2409.6749999952735"
"","html-voicekey-response","97","673658","0.0-4.93-0.93","2cxdpsu3uj2eu8h","{""user_agent"":""Mozilla/5.0 (Macintosh; Intel Mac OS X 10_14_4) AppleWebKit/537.36 (KHTML, like Gecko) Chrome/74.0.3729.169 Safari/537.36"",""on_chrome"":true,""on_mobile"":false,""language"":""en-US"",""screen_resolution"":[1440,900],""platform"":""MacIntel"",""timezone"":""Europe/Berlin""}","16","2135.774999996857","","","1558516823407","11","","Alfeld","[]","Alfeld","true","false","2660.889999999199"
"","html-voicekey-response","98","676867","0.0-4.94-0.94","2cxdpsu3uj2eu8h","{""user_agent"":""Mozilla/5.0 (Macintosh; Intel Mac OS X 10_14_4) AppleWebKit/537.36 (KHTML, like Gecko) Chrome/74.0.3729.169 Safari/537.36"",""on_chrome"":true,""on_mobile"":false,""language"":""en-US"",""screen_resolution"":[1440,900],""platform"":""MacIntel"",""timezone"":""Europe/Berlin""}","16","1992.3649999999675","","","1558516826675","14","","Potsdam","[]","Potsdam","true","false","2602.1450000044424"
"","html-voicekey-response","99","679851","0.0-4.95-0.95","2cxdpsu3uj2eu8h","{""user_agent"":""Mozilla/5.0 (Macintosh; Intel Mac OS X 10_14_4) AppleWebKit/537.36 (KHTML, like Gecko) Chrome/74.0.3729.169 Safari/537.36"",""on_chrome"":true,""on_mobile"":false,""language"":""en-US"",""screen_resolution"":[1440,900],""platform"":""MacIntel"",""timezone"":""Europe/Berlin""}","16","1634.220000001695","","","1558516829884","5","","Aachen","[]","Aachen","true","false","2376.550000000978"
"","html-voicekey-response","100","684816","0.0-4.96-0.96","2cxdpsu3uj2eu8h","{""user_agent"":""Mozilla/5.0 (Macintosh; Intel Mac OS X 10_14_4) AppleWebKit/537.36 (KHTML, like Gecko) Chrome/74.0.3729.169 Safari/537.36"",""on_chrome"":true,""on_mobile"":false,""language"":""en-US"",""screen_resolution"":[1440,900],""platform"":""MacIntel"",""timezone"":""Europe/Berlin""}","16","3750.1149999968243","","","1558516832867","15","","Nürnberg","[]","Nürnberg","true","true","4358.325000001001"
"","html-voicekey-response","101","688007","0.0-4.97-0.97","2cxdpsu3uj2eu8h","{""user_agent"":""Mozilla/5.0 (Macintosh; Intel Mac OS X 10_14_4) AppleWebKit/537.36 (KHTML, like Gecko) Chrome/74.0.3729.169 Safari/537.36"",""on_chrome"":true,""on_mobile"":false,""language"":""en-US"",""screen_resolution"":[1440,900],""platform"":""MacIntel"",""timezone"":""Europe/Berlin""}","16","1709.0750000005123","","","1558516837834","16","","Schwangau","[]","Schwangau","true","true","2583.5100000039674"
"","html-voicekey-response","102","690824","0.0-4.98-0.98","2cxdpsu3uj2eu8h","{""user_agent"":""Mozilla/5.0 (Macintosh; Intel Mac OS X 10_14_4) AppleWebKit/537.36 (KHTML, like Gecko) Chrome/74.0.3729.169 Safari/537.36"",""on_chrome"":true,""on_mobile"":false,""language"":""en-US"",""screen_resolution"":[1440,900],""platform"":""MacIntel"",""timezone"":""Europe/Berlin""}","16","1568.5450000036276","","","1558516841024","15","","Nürnberg","[]","Nürnberg","true","false","2210.4550000004238"
"","html-voicekey-response","103","694407","0.0-4.99-0.99","2cxdpsu3uj2eu8h","{""user_agent"":""Mozilla/5.0 (Macintosh; Intel Mac OS X 10_14_4) AppleWebKit/537.36 (KHTML, like Gecko) Chrome/74.0.3729.169 Safari/537.36"",""on_chrome"":true,""on_mobile"":false,""language"":""en-US"",""screen_resolution"":[1440,900],""platform"":""MacIntel"",""timezone"":""Europe/Berlin""}","16","2185.554999998049","","","1558516843840","16","","Schwangau","[]","Schwangau","true","false","2977.030000001774"
"","html-voicekey-response","104","697600","0.0-4.100-0.100","2cxdpsu3uj2eu8h","{""user_agent"":""Mozilla/5.0 (Macintosh; Intel Mac OS X 10_14_4) AppleWebKit/537.36 (KHTML, like Gecko) Chrome/74.0.3729.169 Safari/537.36"",""on_chrome"":true,""on_mobile"":false,""language"":""en-US"",""screen_resolution"":[1440,900],""platform"":""MacIntel"",""timezone"":""Europe/Berlin""}","16","1960.300000000489","","","1558516847424","8","","Gotha","[]","Gotha","true","false","2586.2500000003492"
"","html-voicekey-response","105","701733","0.0-4.101-0.101","2cxdpsu3uj2eu8h","{""user_agent"":""Mozilla/5.0 (Macintosh; Intel Mac OS X 10_14_4) AppleWebKit/537.36 (KHTML, like Gecko) Chrome/74.0.3729.169 Safari/537.36"",""on_chrome"":true,""on_mobile"":false,""language"":""en-US"",""screen_resolution"":[1440,900],""platform"":""MacIntel"",""timezone"":""Europe/Berlin""}","16","2916.3799999968383","","","1558516850617","6","","Dresden","[]","Dresden","true","false","3525.7649999985006"
"","html-voicekey-response","106","704484","0.0-4.102-0.102","2cxdpsu3uj2eu8h","{""user_agent"":""Mozilla/5.0 (Macintosh; Intel Mac OS X 10_14_4) AppleWebKit/537.36 (KHTML, like Gecko) Chrome/74.0.3729.169 Safari/537.36"",""on_chrome"":true,""on_mobile"":false,""language"":""en-US"",""screen_resolution"":[1440,900],""platform"":""MacIntel"",""timezone"":""Europe/Berlin""}","16","1435.6599999972154","","","1558516854749","4","","Würzburg","[]","Würzburg","true","false","2144.000000000233"
"","html-voicekey-response","107","707875","0.0-4.103-0.103","2cxdpsu3uj2eu8h","{""user_agent"":""Mozilla/5.0 (Macintosh; Intel Mac OS X 10_14_4) AppleWebKit/537.36 (KHTML, like Gecko) Chrome/74.0.3729.169 Safari/537.36"",""on_chrome"":true,""on_mobile"":false,""language"":""en-US"",""screen_resolution"":[1440,900],""platform"":""MacIntel"",""timezone"":""Europe/Berlin""}","16","1959.570000000857","","","1558516857500","3","","Ingolstadt","[]","Ingolstadt","true","false","2785.2300000013784"
"","html-voicekey-response","108","710908","0.0-4.104-0.104","2cxdpsu3uj2eu8h","{""user_agent"":""Mozilla/5.0 (Macintosh; Intel Mac OS X 10_14_4) AppleWebKit/537.36 (KHTML, like Gecko) Chrome/74.0.3729.169 Safari/537.36"",""on_chrome"":true,""on_mobile"":false,""language"":""en-US"",""screen_resolution"":[1440,900],""platform"":""MacIntel"",""timezone"":""Europe/Berlin""}","16","1517.0299999970944","","","1558516860892","17","","Leipzig","[]","Leipzig","true","true","2425.9449999954086"
"","html-voicekey-response","109","714508","0.0-4.105-0.105","2cxdpsu3uj2eu8h","{""user_agent"":""Mozilla/5.0 (Macintosh; Intel Mac OS X 10_14_4) AppleWebKit/537.36 (KHTML, like Gecko) Chrome/74.0.3729.169 Safari/537.36"",""on_chrome"":true,""on_mobile"":false,""language"":""en-US"",""screen_resolution"":[1440,900],""platform"":""MacIntel"",""timezone"":""Europe/Berlin""}","16","2434.5499999997905","","","1558516863925","12","","Dessau","[]","Dessau","true","false","2992.825000001234"
"","html-voicekey-response","110","717499","0.0-4.106-0.106","2cxdpsu3uj2eu8h","{""user_agent"":""Mozilla/5.0 (Macintosh; Intel Mac OS X 10_14_4) AppleWebKit/537.36 (KHTML, like Gecko) Chrome/74.0.3729.169 Safari/537.36"",""on_chrome"":true,""on_mobile"":false,""language"":""en-US"",""screen_resolution"":[1440,900],""platform"":""MacIntel"",""timezone"":""Europe/Berlin""}","16","1726.3699999983423","","","1558516867525","17","","Leipzig","[]","Leipzig","true","false","2384.5500000026077"
"","html-voicekey-response","111","721933","0.0-4.107-0.107","2cxdpsu3uj2eu8h","{""user_agent"":""Mozilla/5.0 (Macintosh; Intel Mac OS X 10_14_4) AppleWebKit/537.36 (KHTML, like Gecko) Chrome/74.0.3729.169 Safari/537.36"",""on_chrome"":true,""on_mobile"":false,""language"":""en-US"",""screen_resolution"":[1440,900],""platform"":""MacIntel"",""timezone"":""Europe/Berlin""}","16","3217.0700000005077","","","1558516870517","11","","Alfeld","[]","Alfeld","true","false","3826.585000002524"
"","html-voicekey-response","112","725917","0.0-4.108-0.108","2cxdpsu3uj2eu8h","{""user_agent"":""Mozilla/5.0 (Macintosh; Intel Mac OS X 10_14_4) AppleWebKit/537.36 (KHTML, like Gecko) Chrome/74.0.3729.169 Safari/537.36"",""on_chrome"":true,""on_mobile"":false,""language"":""en-US"",""screen_resolution"":[1440,900],""platform"":""MacIntel"",""timezone"":""Europe/Berlin""}","16","2783.5500000017696","","","1558516874950","5","","Aachen","[]","Aachen","true","false","3375.7600000025705"
"","html-voicekey-response","113","729411","0.0-4.109-0.109","2cxdpsu3uj2eu8h","{""user_agent"":""Mozilla/5.0 (Macintosh; Intel Mac OS X 10_14_4) AppleWebKit/537.36 (KHTML, like Gecko) Chrome/74.0.3729.169 Safari/537.36"",""on_chrome"":true,""on_mobile"":false,""language"":""en-US"",""screen_resolution"":[1440,900],""platform"":""MacIntel"",""timezone"":""Europe/Berlin""}","16","2210.444999998645","","","1558516878934","14","","Potsdam","[]","Potsdam","true","false","2886.0950000017183"
"","html-voicekey-response","114","733627","0.0-4.110-0.110","2cxdpsu3uj2eu8h","{""user_agent"":""Mozilla/5.0 (Macintosh; Intel Mac OS X 10_14_4) AppleWebKit/537.36 (KHTML, like Gecko) Chrome/74.0.3729.169 Safari/537.36"",""on_chrome"":true,""on_mobile"":false,""language"":""en-US"",""screen_resolution"":[1440,900],""platform"":""MacIntel"",""timezone"":""Europe/Berlin""}","16","2517.17000000095","","","1558516882428","13","","Chemnitz","[]","Chemnitz","true","false","3607.98000000068"
"","html-voicekey-response","115","736478","0.0-4.111-0.111","2cxdpsu3uj2eu8h","{""user_agent"":""Mozilla/5.0 (Macintosh; Intel Mac OS X 10_14_4) AppleWebKit/537.36 (KHTML, like Gecko) Chrome/74.0.3729.169 Safari/537.36"",""on_chrome"":true,""on_mobile"":false,""language"":""en-US"",""screen_resolution"":[1440,900],""platform"":""MacIntel"",""timezone"":""Europe/Berlin""}","16","1517.3550000053133","","","1558516886645","18","","Forchheim","[]","Forchheim","true","true","2241.4500000013504"
"","html-voicekey-response","116","739584","0.0-4.112-0.112","2cxdpsu3uj2eu8h","{""user_agent"":""Mozilla/5.0 (Macintosh; Intel Mac OS X 10_14_4) AppleWebKit/537.36 (KHTML, like Gecko) Chrome/74.0.3729.169 Safari/537.36"",""on_chrome"":true,""on_mobile"":false,""language"":""en-US"",""screen_resolution"":[1440,900],""platform"":""MacIntel"",""timezone"":""Europe/Berlin""}","16","1773.3299999979558","","","1558516889496","15","","Nürnberg","[]","Nürnberg","true","false","2498.404999998398"
"","html-voicekey-response","117","742502","0.0-4.113-0.113","2cxdpsu3uj2eu8h","{""user_agent"":""Mozilla/5.0 (Macintosh; Intel Mac OS X 10_14_4) AppleWebKit/537.36 (KHTML, like Gecko) Chrome/74.0.3729.169 Safari/537.36"",""on_chrome"":true,""on_mobile"":false,""language"":""en-US"",""screen_resolution"":[1440,900],""platform"":""MacIntel"",""timezone"":""Europe/Berlin""}","16","1618.6299999989337","","","1558516892601","18","","Forchheim","[]","Forchheim","true","false","2310.864999999525"
"","html-voicekey-response","118","747667","0.0-4.114-0.114","2cxdpsu3uj2eu8h","{""user_agent"":""Mozilla/5.0 (Macintosh; Intel Mac OS X 10_14_4) AppleWebKit/537.36 (KHTML, like Gecko) Chrome/74.0.3729.169 Safari/537.36"",""on_chrome"":true,""on_mobile"":false,""language"":""en-US"",""screen_resolution"":[1440,900],""platform"":""MacIntel"",""timezone"":""Europe/Berlin""}","16","3866.4549999973738","","","1558516895519","11","","Alfeld","[]","Alfeld","true","false","4559.079999999143"
"","html-voicekey-response","119","758276","0.0-4.115-0.115","2cxdpsu3uj2eu8h","{""user_agent"":""Mozilla/5.0 (Macintosh; Intel Mac OS X 10_14_4) AppleWebKit/537.36 (KHTML, like Gecko) Chrome/74.0.3729.169 Safari/537.36"",""on_chrome"":true,""on_mobile"":false,""language"":""en-US"",""screen_resolution"":[1440,900],""platform"":""MacIntel"",""timezone"":""Europe/Berlin""}","16","2926.0149999990595","","","1558516900685","16","","","[]","Schwangau","false","false","6601.349999997299"
"","html-voicekey-response","120","762700","0.0-4.116-0.116","2cxdpsu3uj2eu8h","{""user_agent"":""Mozilla/5.0 (Macintosh; Intel Mac OS X 10_14_4) AppleWebKit/537.36 (KHTML, like Gecko) Chrome/74.0.3729.169 Safari/537.36"",""on_chrome"":true,""on_mobile"":false,""language"":""en-US"",""screen_resolution"":[1440,900],""platform"":""MacIntel"",""timezone"":""Europe/Berlin""}","16","2917.1450000011596","","","1558516911293","5","","Aachen","[]","Aachen","true","false","3817.2650000052527"
"","html-voicekey-response","121","765850","0.0-4.117-0.117","2cxdpsu3uj2eu8h","{""user_agent"":""Mozilla/5.0 (Macintosh; Intel Mac OS X 10_14_4) AppleWebKit/537.36 (KHTML, like Gecko) Chrome/74.0.3729.169 Safari/537.36"",""on_chrome"":true,""on_mobile"":false,""language"":""en-US"",""screen_resolution"":[1440,900],""platform"":""MacIntel"",""timezone"":""Europe/Berlin""}","16","1634.355000003567","","","1558516915718","17","","Leipzig","[]","Leipzig","true","false","2542.6600000064354"
"","html-voicekey-response","122","769600","0.0-4.118-0.118","2cxdpsu3uj2eu8h","{""user_agent"":""Mozilla/5.0 (Macintosh; Intel Mac OS X 10_14_4) AppleWebKit/537.36 (KHTML, like Gecko) Chrome/74.0.3729.169 Safari/537.36"",""on_chrome"":true,""on_mobile"":false,""language"":""en-US"",""screen_resolution"":[1440,900],""platform"":""MacIntel"",""timezone"":""Europe/Berlin""}","16","2367.384999999404","","","1558516918867","5","","Aachen","[]","Aachen","true","false","3142.0300000027055"
"","html-voicekey-response","123","775508","0.0-4.119-0.119","2cxdpsu3uj2eu8h","{""user_agent"":""Mozilla/5.0 (Macintosh; Intel Mac OS X 10_14_4) AppleWebKit/537.36 (KHTML, like Gecko) Chrome/74.0.3729.169 Safari/537.36"",""on_chrome"":true,""on_mobile"":false,""language"":""en-US"",""screen_resolution"":[1440,900],""platform"":""MacIntel"",""timezone"":""Europe/Berlin""}","16","4575.505000002426","","","1558516922617","11","","Alfeld","[]","Alfeld","true","false","5301.075000003097"
"","html-voicekey-response","124","781058","0.0-4.120-0.120","2cxdpsu3uj2eu8h","{""user_agent"":""Mozilla/5.0 (Macintosh; Intel Mac OS X 10_14_4) AppleWebKit/537.36 (KHTML, like Gecko) Chrome/74.0.3729.169 Safari/537.36"",""on_chrome"":true,""on_mobile"":false,""language"":""en-US"",""screen_resolution"":[1440,900],""platform"":""MacIntel"",""timezone"":""Europe/Berlin""}","16","4265.434999995608","","","1558516928527","8","","Gotha","[]","Gotha","true","false","4940.79499999492"
"","html-voicekey-response","125","784001","0.0-4.121-0.121","2cxdpsu3uj2eu8h","{""user_agent"":""Mozilla/5.0 (Macintosh; Intel Mac OS X 10_14_4) AppleWebKit/537.36 (KHTML, like Gecko) Chrome/74.0.3729.169 Safari/537.36"",""on_chrome"":true,""on_mobile"":false,""language"":""en-US"",""screen_resolution"":[1440,900],""platform"":""MacIntel"",""timezone"":""Europe/Berlin""}","16","1743.7999999981607","","","1558516934076","4","","Würzburg","[]","Würzburg","true","false","2335.2250000024214"
"","html-voicekey-response","126","788968","0.0-4.122-0.122","2cxdpsu3uj2eu8h","{""user_agent"":""Mozilla/5.0 (Macintosh; Intel Mac OS X 10_14_4) AppleWebKit/537.36 (KHTML, like Gecko) Chrome/74.0.3729.169 Safari/537.36"",""on_chrome"":true,""on_mobile"":false,""language"":""en-US"",""screen_resolution"":[1440,900],""platform"":""MacIntel"",""timezone"":""Europe/Berlin""}","16","3699.4349999966566","","","1558516937019","5","","Aachen","[]","Aachen","true","false","4358.605000001262"
"","html-voicekey-response","127","798752","0.0-4.123-0.123","2cxdpsu3uj2eu8h","{""user_agent"":""Mozilla/5.0 (Macintosh; Intel Mac OS X 10_14_4) AppleWebKit/537.36 (KHTML, like Gecko) Chrome/74.0.3729.169 Safari/537.36"",""on_chrome"":true,""on_mobile"":false,""language"":""en-US"",""screen_resolution"":[1440,900],""platform"":""MacIntel"",""timezone"":""Europe/Berlin""}","16","4515.775000001513","","","1558516941987","18","","","[]","Forchheim","false","false","5773.5949999986915"
"","html-voicekey-response","128","805843","0.0-4.124-0.124","2cxdpsu3uj2eu8h","{""user_agent"":""Mozilla/5.0 (Macintosh; Intel Mac OS X 10_14_4) AppleWebKit/537.36 (KHTML, like Gecko) Chrome/74.0.3729.169 Safari/537.36"",""on_chrome"":true,""on_mobile"":false,""language"":""en-US"",""screen_resolution"":[1440,900],""platform"":""MacIntel"",""timezone"":""Europe/Berlin""}","16","5856.499999996018","","","1558516951770","11","","Alfeld","[]","Alfeld","true","false","6480.790000001434"
"","html-voicekey-response","129","809252","0.0-4.125-0.125","2cxdpsu3uj2eu8h","{""user_agent"":""Mozilla/5.0 (Macintosh; Intel Mac OS X 10_14_4) AppleWebKit/537.36 (KHTML, like Gecko) Chrome/74.0.3729.169 Safari/537.36"",""on_chrome"":true,""on_mobile"":false,""language"":""en-US"",""screen_resolution"":[1440,900],""platform"":""MacIntel"",""timezone"":""Europe/Berlin""}","16","2192.8050000003773","","","1558516958861","16","","Schwangau","[]","Schwangau","true","false","2801.6250000001164"
"","html-voicekey-response","130","813384","0.0-4.126-0.126","2cxdpsu3uj2eu8h","{""user_agent"":""Mozilla/5.0 (Macintosh; Intel Mac OS X 10_14_4) AppleWebKit/537.36 (KHTML, like Gecko) Chrome/74.0.3729.169 Safari/537.36"",""on_chrome"":true,""on_mobile"":false,""language"":""en-US"",""screen_resolution"":[1440,900],""platform"":""MacIntel"",""timezone"":""Europe/Berlin""}","16","2982.4549999992364","","","1558516962270","11","","Alfeld","[]","Alfeld","true","false","3524.5499999946915"
"","html-voicekey-response","131","816419","0.0-4.127-0.127","2cxdpsu3uj2eu8h","{""user_agent"":""Mozilla/5.0 (Macintosh; Intel Mac OS X 10_14_4) AppleWebKit/537.36 (KHTML, like Gecko) Chrome/74.0.3729.169 Safari/537.36"",""on_chrome"":true,""on_mobile"":false,""language"":""en-US"",""screen_resolution"":[1440,900],""platform"":""MacIntel"",""timezone"":""Europe/Berlin""}","16","1931.7099999987754","","","1558516966404","5","","Aachen","[]","Aachen","true","false","2423.4750000032363"
"","html-voicekey-response","132","819733","0.0-4.128-0.128","2cxdpsu3uj2eu8h","{""user_agent"":""Mozilla/5.0 (Macintosh; Intel Mac OS X 10_14_4) AppleWebKit/537.36 (KHTML, like Gecko) Chrome/74.0.3729.169 Safari/537.36"",""on_chrome"":true,""on_mobile"":false,""language"":""en-US"",""screen_resolution"":[1440,900],""platform"":""MacIntel"",""timezone"":""Europe/Berlin""}","16","2280.074999996787","","","1558516969437","11","","Alfeld","[]","Alfeld","true","false","2706.054999995162"
"","html-voicekey-response","133","822532","0.0-4.129-0.129","2cxdpsu3uj2eu8h","{""user_agent"":""Mozilla/5.0 (Macintosh; Intel Mac OS X 10_14_4) AppleWebKit/537.36 (KHTML, like Gecko) Chrome/74.0.3729.169 Safari/537.36"",""on_chrome"":true,""on_mobile"":false,""language"":""en-US"",""screen_resolution"":[1440,900],""platform"":""MacIntel"",""timezone"":""Europe/Berlin""}","16","1665.5049999988173","","","1558516972751","13","","Chemnitz","[]","Chemnitz","true","false","2190.9399999930756"
