"value","trial_type","trial_index","time_elapsed","internal_node_id","subject","browser_info","participant_number","rt","responses","view_history","presentation_start_time","id","text","response","keypresses","answer","correct","study","experimenter_rt"
"","call-function","0","4","0.0-0.0","7sgabt6kkwfsgck","{""user_agent"":""Mozilla/5.0 (Macintosh; Intel Mac OS X 10_14_4) AppleWebKit/537.36 (KHTML, like Gecko) Chrome/74.0.3729.169 Safari/537.36"",""on_chrome"":true,""on_mobile"":false,""language"":""en-US"",""screen_resolution"":[1440,900],""platform"":""MacIntel"",""timezone"":""Europe/Berlin""}","17","","","","","","","","","","","",""
"","survey-text","1","7820","0.0-1.0","7sgabt6kkwfsgck","{""user_agent"":""Mozilla/5.0 (Macintosh; Intel Mac OS X 10_14_4) AppleWebKit/537.36 (KHTML, like Gecko) Chrome/74.0.3729.169 Safari/537.36"",""on_chrome"":true,""on_mobile"":false,""language"":""en-US"",""screen_resolution"":[1440,900],""platform"":""MacIntel"",""timezone"":""Europe/Berlin""}","17","7814","{""Q0"":""17""}","","","","","","","","","",""
"","instructions","2","94633","0.0-2.0","7sgabt6kkwfsgck","{""user_agent"":""Mozilla/5.0 (Macintosh; Intel Mac OS X 10_14_4) AppleWebKit/537.36 (KHTML, like Gecko) Chrome/74.0.3729.169 Safari/537.36"",""on_chrome"":true,""on_mobile"":false,""language"":""en-US"",""screen_resolution"":[1440,900],""platform"":""MacIntel"",""timezone"":""Europe/Berlin""}","17","86812","","[{""page_index"":0,""viewing_time"":86811}]","","","","","","","","",""
"","call-function","3","94634","0.0-3.0","7sgabt6kkwfsgck","{""user_agent"":""Mozilla/5.0 (Macintosh; Intel Mac OS X 10_14_4) AppleWebKit/537.36 (KHTML, like Gecko) Chrome/74.0.3729.169 Safari/537.36"",""on_chrome"":true,""on_mobile"":false,""language"":""en-US"",""screen_resolution"":[1440,900],""platform"":""MacIntel"",""timezone"":""Europe/Berlin""}","17","","","","","","","","","","","",""
"","html-voicekey-response","4","98084","0.0-4.0-0.0","7sgabt6kkwfsgck","{""user_agent"":""Mozilla/5.0 (Macintosh; Intel Mac OS X 10_14_4) AppleWebKit/537.36 (KHTML, like Gecko) Chrome/74.0.3729.169 Safari/537.36"",""on_chrome"":true,""on_mobile"":false,""language"":""en-US"",""screen_resolution"":[1440,900],""platform"":""MacIntel"",""timezone"":""Europe/Berlin""}","17","1894.1649999995484","","","1558521504065","1","","Magdeburg","[]","Magdeburg","true","true","2846.210000003339"
"","html-voicekey-response","5","102799","0.0-4.1-0.1","7sgabt6kkwfsgck","{""user_agent"":""Mozilla/5.0 (Macintosh; Intel Mac OS X 10_14_4) AppleWebKit/537.36 (KHTML, like Gecko) Chrome/74.0.3729.169 Safari/537.36"",""on_chrome"":true,""on_mobile"":false,""language"":""en-US"",""screen_resolution"":[1440,900],""platform"":""MacIntel"",""timezone"":""Europe/Berlin""}","17","3267.3350000057603","","","1558521507517","1","","Magdeburg","[]","Magdeburg","true","false","4109.7200000003795"
"","html-voicekey-response","6","107082","0.0-4.2-0.2","7sgabt6kkwfsgck","{""user_agent"":""Mozilla/5.0 (Macintosh; Intel Mac OS X 10_14_4) AppleWebKit/537.36 (KHTML, like Gecko) Chrome/74.0.3729.169 Safari/537.36"",""on_chrome"":true,""on_mobile"":false,""language"":""en-US"",""screen_resolution"":[1440,900],""platform"":""MacIntel"",""timezone"":""Europe/Berlin""}","17","1355.390000005928","","","1558521512229","2","","Berlin","[]","Berlin","true","true","3680.18000000302"
"","html-voicekey-response","7","111755","0.0-4.3-0.3","7sgabt6kkwfsgck","{""user_agent"":""Mozilla/5.0 (Macintosh; Intel Mac OS X 10_14_4) AppleWebKit/537.36 (KHTML, like Gecko) Chrome/74.0.3729.169 Safari/537.36"",""on_chrome"":true,""on_mobile"":false,""language"":""en-US"",""screen_resolution"":[1440,900],""platform"":""MacIntel"",""timezone"":""Europe/Berlin""}","17","2428.8050000048593","","","1558521516512","2","","Berlin","[]","Berlin","true","false","4071.490000002086"
"","html-voicekey-response","8","114922","0.0-4.4-0.4","7sgabt6kkwfsgck","{""user_agent"":""Mozilla/5.0 (Macintosh; Intel Mac OS X 10_14_4) AppleWebKit/537.36 (KHTML, like Gecko) Chrome/74.0.3729.169 Safari/537.36"",""on_chrome"":true,""on_mobile"":false,""language"":""en-US"",""screen_resolution"":[1440,900],""platform"":""MacIntel"",""timezone"":""Europe/Berlin""}","17","1439.5100000054576","","","1558521521185","3","","Ingolstadt","[]","Ingolstadt","true","true","2565.439999998489"
"","html-voicekey-response","9","119091","0.0-4.5-0.5","7sgabt6kkwfsgck","{""user_agent"":""Mozilla/5.0 (Macintosh; Intel Mac OS X 10_14_4) AppleWebKit/537.36 (KHTML, like Gecko) Chrome/74.0.3729.169 Safari/537.36"",""on_chrome"":true,""on_mobile"":false,""language"":""en-US"",""screen_resolution"":[1440,900],""platform"":""MacIntel"",""timezone"":""Europe/Berlin""}","17","2572.679999999155","","","1558521524353","4","","Würzburg","[]","Würzburg","true","true","3563.909999997122"
"","html-voicekey-response","10","122365","0.0-4.6-0.6","7sgabt6kkwfsgck","{""user_agent"":""Mozilla/5.0 (Macintosh; Intel Mac OS X 10_14_4) AppleWebKit/537.36 (KHTML, like Gecko) Chrome/74.0.3729.169 Safari/537.36"",""on_chrome"":true,""on_mobile"":false,""language"":""en-US"",""screen_resolution"":[1440,900],""platform"":""MacIntel"",""timezone"":""Europe/Berlin""}","17","1597.0600000017207","","","1558521528522","3","","Ingolstadt","[]","Ingolstadt","true","false","2671.4950000023236"
"","html-voicekey-response","11","124931","0.0-4.7-0.7","7sgabt6kkwfsgck","{""user_agent"":""Mozilla/5.0 (Macintosh; Intel Mac OS X 10_14_4) AppleWebKit/537.36 (KHTML, like Gecko) Chrome/74.0.3729.169 Safari/537.36"",""on_chrome"":true,""on_mobile"":false,""language"":""en-US"",""screen_resolution"":[1440,900],""platform"":""MacIntel"",""timezone"":""Europe/Berlin""}","17","1239.0350000003587","","","1558521531795","4","","Würzburg","[]","Würzburg","true","false","1964.4500000067637"
"","html-voicekey-response","12","127482","0.0-4.8-0.8","7sgabt6kkwfsgck","{""user_agent"":""Mozilla/5.0 (Macintosh; Intel Mac OS X 10_14_4) AppleWebKit/537.36 (KHTML, like Gecko) Chrome/74.0.3729.169 Safari/537.36"",""on_chrome"":true,""on_mobile"":false,""language"":""en-US"",""screen_resolution"":[1440,900],""platform"":""MacIntel"",""timezone"":""Europe/Berlin""}","17","1338.9899999982213","","","1558521534361","5","","Aachen","[]","Aachen","true","true","1948.3299999992596"
"","html-voicekey-response","13","130367","0.0-4.9-0.9","7sgabt6kkwfsgck","{""user_agent"":""Mozilla/5.0 (Macintosh; Intel Mac OS X 10_14_4) AppleWebKit/537.36 (KHTML, like Gecko) Chrome/74.0.3729.169 Safari/537.36"",""on_chrome"":true,""on_mobile"":false,""language"":""en-US"",""screen_resolution"":[1440,900],""platform"":""MacIntel"",""timezone"":""Europe/Berlin""}","17","1539.2800000061748","","","1558521536912","6","","Dresden","[]","Dresden","true","true","2281.125000001339"
"","html-voicekey-response","14","137640","0.0-4.10-0.10","7sgabt6kkwfsgck","{""user_agent"":""Mozilla/5.0 (Macintosh; Intel Mac OS X 10_14_4) AppleWebKit/537.36 (KHTML, like Gecko) Chrome/74.0.3729.169 Safari/537.36"",""on_chrome"":true,""on_mobile"":false,""language"":""en-US"",""screen_resolution"":[1440,900],""platform"":""MacIntel"",""timezone"":""Europe/Berlin""}","17","5995.315000001783","","","1558521539797","5","","Aachen","[]","Aachen","true","false","6671.089999996184"
"","html-voicekey-response","15","140473","0.0-4.11-0.11","7sgabt6kkwfsgck","{""user_agent"":""Mozilla/5.0 (Macintosh; Intel Mac OS X 10_14_4) AppleWebKit/537.36 (KHTML, like Gecko) Chrome/74.0.3729.169 Safari/537.36"",""on_chrome"":true,""on_mobile"":false,""language"":""en-US"",""screen_resolution"":[1440,900],""platform"":""MacIntel"",""timezone"":""Europe/Berlin""}","17","100","","","1558521547070","6","","Dresden","[]","Dresden","true","false","2230.4999999978463"
"","html-voicekey-response","16","142549","0.0-4.12-0.12","7sgabt6kkwfsgck","{""user_agent"":""Mozilla/5.0 (Macintosh; Intel Mac OS X 10_14_4) AppleWebKit/537.36 (KHTML, like Gecko) Chrome/74.0.3729.169 Safari/537.36"",""on_chrome"":true,""on_mobile"":false,""language"":""en-US"",""screen_resolution"":[1440,900],""platform"":""MacIntel"",""timezone"":""Europe/Berlin""}","17","964.9599999991827","","","1558521549903","1","","Magdeburg","[]","Magdeburg","true","false","1474.275000000489"
"","html-voicekey-response","17","145348","0.0-4.13-0.13","7sgabt6kkwfsgck","{""user_agent"":""Mozilla/5.0 (Macintosh; Intel Mac OS X 10_14_4) AppleWebKit/537.36 (KHTML, like Gecko) Chrome/74.0.3729.169 Safari/537.36"",""on_chrome"":true,""on_mobile"":false,""language"":""en-US"",""screen_resolution"":[1440,900],""platform"":""MacIntel"",""timezone"":""Europe/Berlin""}","17","1786.7500000009663","","","1558521551980","7","","Erfurt","[]","Erfurt","true","true","2196.1149999988265"
"","html-voicekey-response","18","149098","0.0-4.14-0.14","7sgabt6kkwfsgck","{""user_agent"":""Mozilla/5.0 (Macintosh; Intel Mac OS X 10_14_4) AppleWebKit/537.36 (KHTML, like Gecko) Chrome/74.0.3729.169 Safari/537.36"",""on_chrome"":true,""on_mobile"":false,""language"":""en-US"",""screen_resolution"":[1440,900],""platform"":""MacIntel"",""timezone"":""Europe/Berlin""}","17","2021.5100000003354","","","1558521554779","8","","Gotha","[]","Gotha","true","true","3147.660000002361"
"","html-voicekey-response","19","151801","0.0-4.15-0.15","7sgabt6kkwfsgck","{""user_agent"":""Mozilla/5.0 (Macintosh; Intel Mac OS X 10_14_4) AppleWebKit/537.36 (KHTML, like Gecko) Chrome/74.0.3729.169 Safari/537.36"",""on_chrome"":true,""on_mobile"":false,""language"":""en-US"",""screen_resolution"":[1440,900],""platform"":""MacIntel"",""timezone"":""Europe/Berlin""}","17","1406.1149999996182","","","1558521558528","7","","Erfurt","[]","Erfurt","true","false","2098.27999999834"
"","html-voicekey-response","20","154456","0.0-4.16-0.16","7sgabt6kkwfsgck","{""user_agent"":""Mozilla/5.0 (Macintosh; Intel Mac OS X 10_14_4) AppleWebKit/537.36 (KHTML, like Gecko) Chrome/74.0.3729.169 Safari/537.36"",""on_chrome"":true,""on_mobile"":false,""language"":""en-US"",""screen_resolution"":[1440,900],""platform"":""MacIntel"",""timezone"":""Europe/Berlin""}","17","1427.0800000029617","","","1558521561232","8","","Gotha","[]","Gotha","true","false","2052.945000003092"
"","html-voicekey-response","21","156506","0.0-4.17-0.17","7sgabt6kkwfsgck","{""user_agent"":""Mozilla/5.0 (Macintosh; Intel Mac OS X 10_14_4) AppleWebKit/537.36 (KHTML, like Gecko) Chrome/74.0.3729.169 Safari/537.36"",""on_chrome"":true,""on_mobile"":false,""language"":""en-US"",""screen_resolution"":[1440,900],""platform"":""MacIntel"",""timezone"":""Europe/Berlin""}","17","855.7999999992084","","","1558521563887","2","","Berlin","[]","Berlin","true","false","1447.5450000027195"
"","html-voicekey-response","22","160257","0.0-4.18-0.18","7sgabt6kkwfsgck","{""user_agent"":""Mozilla/5.0 (Macintosh; Intel Mac OS X 10_14_4) AppleWebKit/537.36 (KHTML, like Gecko) Chrome/74.0.3729.169 Safari/537.36"",""on_chrome"":true,""on_mobile"":false,""language"":""en-US"",""screen_resolution"":[1440,900],""platform"":""MacIntel"",""timezone"":""Europe/Berlin""}","17","2238.995000001369","","","1558521565937","9","","München","[]","München","true","true","3148.1650000059744"
"","html-voicekey-response","23","163123","0.0-4.19-0.19","7sgabt6kkwfsgck","{""user_agent"":""Mozilla/5.0 (Macintosh; Intel Mac OS X 10_14_4) AppleWebKit/537.36 (KHTML, like Gecko) Chrome/74.0.3729.169 Safari/537.36"",""on_chrome"":true,""on_mobile"":false,""language"":""en-US"",""screen_resolution"":[1440,900],""platform"":""MacIntel"",""timezone"":""Europe/Berlin""}","17","1421.405000002624","","","1558521569687","10","","Heidelberg","[]","Heidelberg","true","true","2263.4150000012596"
"","html-voicekey-response","24","165948","0.0-4.20-0.20","7sgabt6kkwfsgck","{""user_agent"":""Mozilla/5.0 (Macintosh; Intel Mac OS X 10_14_4) AppleWebKit/537.36 (KHTML, like Gecko) Chrome/74.0.3729.169 Safari/537.36"",""on_chrome"":true,""on_mobile"":false,""language"":""en-US"",""screen_resolution"":[1440,900],""platform"":""MacIntel"",""timezone"":""Europe/Berlin""}","17","1512.9200000026963","","","1558521572554","9","","München","[]","München","true","false","2221.3450000053854"
"","html-voicekey-response","25","168098","0.0-4.21-0.21","7sgabt6kkwfsgck","{""user_agent"":""Mozilla/5.0 (Macintosh; Intel Mac OS X 10_14_4) AppleWebKit/537.36 (KHTML, like Gecko) Chrome/74.0.3729.169 Safari/537.36"",""on_chrome"":true,""on_mobile"":false,""language"":""en-US"",""screen_resolution"":[1440,900],""platform"":""MacIntel"",""timezone"":""Europe/Berlin""}","17","722.7050000017974","","","1558521575378","10","","Heidelberg","[]","Heidelberg","true","false","1547.6000000053318"
"","html-voicekey-response","26","173747","0.0-4.22-0.22","7sgabt6kkwfsgck","{""user_agent"":""Mozilla/5.0 (Macintosh; Intel Mac OS X 10_14_4) AppleWebKit/537.36 (KHTML, like Gecko) Chrome/74.0.3729.169 Safari/537.36"",""on_chrome"":true,""on_mobile"":false,""language"":""en-US"",""screen_resolution"":[1440,900],""platform"":""MacIntel"",""timezone"":""Europe/Berlin""}","17","4422.404999999189","","","1558521577528","3","","Ingolstadt","[]","Ingolstadt","true","false","5046.419999998761"
"","html-voicekey-response","27","176376","0.0-4.23-0.23","7sgabt6kkwfsgck","{""user_agent"":""Mozilla/5.0 (Macintosh; Intel Mac OS X 10_14_4) AppleWebKit/537.36 (KHTML, like Gecko) Chrome/74.0.3729.169 Safari/537.36"",""on_chrome"":true,""on_mobile"":false,""language"":""en-US"",""screen_resolution"":[1440,900],""platform"":""MacIntel"",""timezone"":""Europe/Berlin""}","17","1366.565000005567","","","1558521583179","4","","Würzburg","[]","Würzburg","true","false","2025.8250000042608"
"","html-voicekey-response","28","179094","0.0-4.24-0.24","7sgabt6kkwfsgck","{""user_agent"":""Mozilla/5.0 (Macintosh; Intel Mac OS X 10_14_4) AppleWebKit/537.36 (KHTML, like Gecko) Chrome/74.0.3729.169 Safari/537.36"",""on_chrome"":true,""on_mobile"":false,""language"":""en-US"",""screen_resolution"":[1440,900],""platform"":""MacIntel"",""timezone"":""Europe/Berlin""}","17","1371.5350000000676","","","1558521585807","5","","Aachen","[]","Aachen","true","false","2113.890000000538"
"","html-voicekey-response","29","182159","0.0-4.25-0.25","7sgabt6kkwfsgck","{""user_agent"":""Mozilla/5.0 (Macintosh; Intel Mac OS X 10_14_4) AppleWebKit/537.36 (KHTML, like Gecko) Chrome/74.0.3729.169 Safari/537.36"",""on_chrome"":true,""on_mobile"":false,""language"":""en-US"",""screen_resolution"":[1440,900],""platform"":""MacIntel"",""timezone"":""Europe/Berlin""}","17","1604.570000004815","","","1558521588525","11","","Alfeld","[]","Alfeld","true","true","2462.039999998524"
"","html-voicekey-response","30","184844","0.0-4.26-0.26","7sgabt6kkwfsgck","{""user_agent"":""Mozilla/5.0 (Macintosh; Intel Mac OS X 10_14_4) AppleWebKit/537.36 (KHTML, like Gecko) Chrome/74.0.3729.169 Safari/537.36"",""on_chrome"":true,""on_mobile"":false,""language"":""en-US"",""screen_resolution"":[1440,900],""platform"":""MacIntel"",""timezone"":""Europe/Berlin""}","17","1338.624999998347","","","1558521591590","12","","Dessau","[]","Dessau","true","true","2080.2699999985634"
"","html-voicekey-response","31","187984","0.0-4.27-0.27","7sgabt6kkwfsgck","{""user_agent"":""Mozilla/5.0 (Macintosh; Intel Mac OS X 10_14_4) AppleWebKit/537.36 (KHTML, like Gecko) Chrome/74.0.3729.169 Safari/537.36"",""on_chrome"":true,""on_mobile"":false,""language"":""en-US"",""screen_resolution"":[1440,900],""platform"":""MacIntel"",""timezone"":""Europe/Berlin""}","17","1279.2700000007521","","","1558521594275","11","","Alfeld","[]","Alfeld","true","false","2537.6649999961955"
"","html-voicekey-response","32","190151","0.0-4.28-0.28","7sgabt6kkwfsgck","{""user_agent"":""Mozilla/5.0 (Macintosh; Intel Mac OS X 10_14_4) AppleWebKit/537.36 (KHTML, like Gecko) Chrome/74.0.3729.169 Safari/537.36"",""on_chrome"":true,""on_mobile"":false,""language"":""en-US"",""screen_resolution"":[1440,900],""platform"":""MacIntel"",""timezone"":""Europe/Berlin""}","17","937.7750000001746","","","1558521597416","12","","Dessau","[]","Dessau","true","false","1563.2949999999255"
"","html-voicekey-response","33","192017","0.0-4.29-0.29","7sgabt6kkwfsgck","{""user_agent"":""Mozilla/5.0 (Macintosh; Intel Mac OS X 10_14_4) AppleWebKit/537.36 (KHTML, like Gecko) Chrome/74.0.3729.169 Safari/537.36"",""on_chrome"":true,""on_mobile"":false,""language"":""en-US"",""screen_resolution"":[1440,900],""platform"":""MacIntel"",""timezone"":""Europe/Berlin""}","17","100","","","1558521599582","6","","Dresden","[]","Dresden","true","false","1263.7849999955506"
"","html-voicekey-response","34","195268","0.0-4.30-0.30","7sgabt6kkwfsgck","{""user_agent"":""Mozilla/5.0 (Macintosh; Intel Mac OS X 10_14_4) AppleWebKit/537.36 (KHTML, like Gecko) Chrome/74.0.3729.169 Safari/537.36"",""on_chrome"":true,""on_mobile"":false,""language"":""en-US"",""screen_resolution"":[1440,900],""platform"":""MacIntel"",""timezone"":""Europe/Berlin""}","17","1089.1100000024658","","","1558521601448","13","","Chemnitz","[]","Chemnitz","true","true","2647.884999998496"
"","html-voicekey-response","35","198928","0.0-4.31-0.31","7sgabt6kkwfsgck","{""user_agent"":""Mozilla/5.0 (Macintosh; Intel Mac OS X 10_14_4) AppleWebKit/537.36 (KHTML, like Gecko) Chrome/74.0.3729.169 Safari/537.36"",""on_chrome"":true,""on_mobile"":false,""language"":""en-US"",""screen_resolution"":[1440,900],""platform"":""MacIntel"",""timezone"":""Europe/Berlin""}","17","2432.665000001935","","","1558521604698","7","","Erfurt","[]","Erfurt","true","false","3057.824999996228"
"","html-voicekey-response","36","202494","0.0-4.32-0.32","7sgabt6kkwfsgck","{""user_agent"":""Mozilla/5.0 (Macintosh; Intel Mac OS X 10_14_4) AppleWebKit/537.36 (KHTML, like Gecko) Chrome/74.0.3729.169 Safari/537.36"",""on_chrome"":true,""on_mobile"":false,""language"":""en-US"",""screen_resolution"":[1440,900],""platform"":""MacIntel"",""timezone"":""Europe/Berlin""}","17","2272.68999999963","","","1558521608358","13","","Chemnitz","[]","Chemnitz","true","false","2964.3250000008265"
"","html-voicekey-response","37","205178","0.0-4.33-0.33","7sgabt6kkwfsgck","{""user_agent"":""Mozilla/5.0 (Macintosh; Intel Mac OS X 10_14_4) AppleWebKit/537.36 (KHTML, like Gecko) Chrome/74.0.3729.169 Safari/537.36"",""on_chrome"":true,""on_mobile"":false,""language"":""en-US"",""screen_resolution"":[1440,900],""platform"":""MacIntel"",""timezone"":""Europe/Berlin""}","17","1354.2049999976648","","","1558521611926","8","","Gotha","[]","Gotha","true","false","2079.5749999961117"
"","html-voicekey-response","38","207953","0.0-4.34-0.34","7sgabt6kkwfsgck","{""user_agent"":""Mozilla/5.0 (Macintosh; Intel Mac OS X 10_14_4) AppleWebKit/537.36 (KHTML, like Gecko) Chrome/74.0.3729.169 Safari/537.36"",""on_chrome"":true,""on_mobile"":false,""language"":""en-US"",""screen_resolution"":[1440,900],""platform"":""MacIntel"",""timezone"":""Europe/Berlin""}","17","1355.6850000039326","","","1558521614609","14","","Potsdam","[]","Potsdam","true","true","2172.6050000070245"
"","html-voicekey-response","39","210169","0.0-4.35-0.35","7sgabt6kkwfsgck","{""user_agent"":""Mozilla/5.0 (Macintosh; Intel Mac OS X 10_14_4) AppleWebKit/537.36 (KHTML, like Gecko) Chrome/74.0.3729.169 Safari/537.36"",""on_chrome"":true,""on_mobile"":false,""language"":""en-US"",""screen_resolution"":[1440,900],""platform"":""MacIntel"",""timezone"":""Europe/Berlin""}","17","1052.2900000012946","","","1558521617386","9","","München","[]","München","true","false","1611.8249999999534"
"","html-voicekey-response","40","212786","0.0-4.36-0.36","7sgabt6kkwfsgck","{""user_agent"":""Mozilla/5.0 (Macintosh; Intel Mac OS X 10_14_4) AppleWebKit/537.36 (KHTML, like Gecko) Chrome/74.0.3729.169 Safari/537.36"",""on_chrome"":true,""on_mobile"":false,""language"":""en-US"",""screen_resolution"":[1440,900],""platform"":""MacIntel"",""timezone"":""Europe/Berlin""}","17","1370.5449999996113","","","1558521619601","14","","Potsdam","[]","Potsdam","true","false","2012.6250000030268"
"","html-voicekey-response","41","215719","0.0-4.37-0.37","7sgabt6kkwfsgck","{""user_agent"":""Mozilla/5.0 (Macintosh; Intel Mac OS X 10_14_4) AppleWebKit/537.36 (KHTML, like Gecko) Chrome/74.0.3729.169 Safari/537.36"",""on_chrome"":true,""on_mobile"":false,""language"":""en-US"",""screen_resolution"":[1440,900],""platform"":""MacIntel"",""timezone"":""Europe/Berlin""}","17","100","","","1558521622217","3","","Ingolstadt","[]","Ingolstadt","true","false","2330.0799999997253"
"","html-voicekey-response","42","218161","0.0-4.38-0.38","7sgabt6kkwfsgck","{""user_agent"":""Mozilla/5.0 (Macintosh; Intel Mac OS X 10_14_4) AppleWebKit/537.36 (KHTML, like Gecko) Chrome/74.0.3729.169 Safari/537.36"",""on_chrome"":true,""on_mobile"":false,""language"":""en-US"",""screen_resolution"":[1440,900],""platform"":""MacIntel"",""timezone"":""Europe/Berlin""}","17","1172.2550000066171","","","1558521625150","10","","Heidelberg","[]","Heidelberg","true","false","1838.9700000043376"
"","html-voicekey-response","43","220610","0.0-4.39-0.39","7sgabt6kkwfsgck","{""user_agent"":""Mozilla/5.0 (Macintosh; Intel Mac OS X 10_14_4) AppleWebKit/537.36 (KHTML, like Gecko) Chrome/74.0.3729.169 Safari/537.36"",""on_chrome"":true,""on_mobile"":false,""language"":""en-US"",""screen_resolution"":[1440,900],""platform"":""MacIntel"",""timezone"":""Europe/Berlin""}","17","1303.8600000016509","","","1558521627592","15","","Nürnberg","[]","Nürnberg","true","true","1846.575000003213"
"","html-voicekey-response","44","223361","0.0-4.40-0.40","7sgabt6kkwfsgck","{""user_agent"":""Mozilla/5.0 (Macintosh; Intel Mac OS X 10_14_4) AppleWebKit/537.36 (KHTML, like Gecko) Chrome/74.0.3729.169 Safari/537.36"",""on_chrome"":true,""on_mobile"":false,""language"":""en-US"",""screen_resolution"":[1440,900],""platform"":""MacIntel"",""timezone"":""Europe/Berlin""}","17","1504.7949999951293","","","1558521630041","16","","Schwangau","[]","Schwangau","true","true","2148.089999995136"
"","html-voicekey-response","45","225294","0.0-4.41-0.41","7sgabt6kkwfsgck","{""user_agent"":""Mozilla/5.0 (Macintosh; Intel Mac OS X 10_14_4) AppleWebKit/537.36 (KHTML, like Gecko) Chrome/74.0.3729.169 Safari/537.36"",""on_chrome"":true,""on_mobile"":false,""language"":""en-US"",""screen_resolution"":[1440,900],""platform"":""MacIntel"",""timezone"":""Europe/Berlin""}","17","737.4349999971222","","","1558521632793","15","","Nürnberg","[]","Nürnberg","true","false","1328.5849999956554"
"","html-voicekey-response","46","227293","0.0-4.42-0.42","7sgabt6kkwfsgck","{""user_agent"":""Mozilla/5.0 (Macintosh; Intel Mac OS X 10_14_4) AppleWebKit/537.36 (KHTML, like Gecko) Chrome/74.0.3729.169 Safari/537.36"",""on_chrome"":true,""on_mobile"":false,""language"":""en-US"",""screen_resolution"":[1440,900],""platform"":""MacIntel"",""timezone"":""Europe/Berlin""}","17","804.3199999973061","","","1558521634725","16","","Schwangau","[]","Schwangau","true","false","1396.0299999962444"
"","html-voicekey-response","47","229552","0.0-4.43-0.43","7sgabt6kkwfsgck","{""user_agent"":""Mozilla/5.0 (Macintosh; Intel Mac OS X 10_14_4) AppleWebKit/537.36 (KHTML, like Gecko) Chrome/74.0.3729.169 Safari/537.36"",""on_chrome"":true,""on_mobile"":false,""language"":""en-US"",""screen_resolution"":[1440,900],""platform"":""MacIntel"",""timezone"":""Europe/Berlin""}","17","1026.0999999971596","","","1558521636728","17","","Leipzig","[]","Leipzig","true","true","1651.8949999954202"
"","html-voicekey-response","48","247584","0.0-4.44-0.44","7sgabt6kkwfsgck","{""user_agent"":""Mozilla/5.0 (Macintosh; Intel Mac OS X 10_14_4) AppleWebKit/537.36 (KHTML, like Gecko) Chrome/74.0.3729.169 Safari/537.36"",""on_chrome"":true,""on_mobile"":false,""language"":""en-US"",""screen_resolution"":[1440,900],""platform"":""MacIntel"",""timezone"":""Europe/Berlin""}","17","13420.254999998933","","","1558521638983","11","","","[]","Alfeld","false","false","14029.094999998051"
"","html-voicekey-response","49","250777","0.0-4.45-0.45","7sgabt6kkwfsgck","{""user_agent"":""Mozilla/5.0 (Macintosh; Intel Mac OS X 10_14_4) AppleWebKit/537.36 (KHTML, like Gecko) Chrome/74.0.3729.169 Safari/537.36"",""on_chrome"":true,""on_mobile"":false,""language"":""en-US"",""screen_resolution"":[1440,900],""platform"":""MacIntel"",""timezone"":""Europe/Berlin""}","17","1696.8399999985472","","","1558521657015","17","","Leipzig","[]","Leipzig","true","false","2589.429999999993"
"","html-voicekey-response","50","254760","0.0-4.46-0.46","7sgabt6kkwfsgck","{""user_agent"":""Mozilla/5.0 (Macintosh; Intel Mac OS X 10_14_4) AppleWebKit/537.36 (KHTML, like Gecko) Chrome/74.0.3729.169 Safari/537.36"",""on_chrome"":true,""on_mobile"":false,""language"":""en-US"",""screen_resolution"":[1440,900],""platform"":""MacIntel"",""timezone"":""Europe/Berlin""}","17","2786.7350000031643","","","1558521660208","12","","Dessau","[]","Dessau","true","false","3379.415000003064"
"","html-voicekey-response","51","258251","0.0-4.47-0.47","7sgabt6kkwfsgck","{""user_agent"":""Mozilla/5.0 (Macintosh; Intel Mac OS X 10_14_4) AppleWebKit/537.36 (KHTML, like Gecko) Chrome/74.0.3729.169 Safari/537.36"",""on_chrome"":true,""on_mobile"":false,""language"":""en-US"",""screen_resolution"":[1440,900],""platform"":""MacIntel"",""timezone"":""Europe/Berlin""}","17","2129.5849999967963","","","1558521664191","13","","Chemnitz","[]","Chemnitz","true","false","2888.229999996838"
"","html-voicekey-response","52","260600","0.0-4.48-0.48","7sgabt6kkwfsgck","{""user_agent"":""Mozilla/5.0 (Macintosh; Intel Mac OS X 10_14_4) AppleWebKit/537.36 (KHTML, like Gecko) Chrome/74.0.3729.169 Safari/537.36"",""on_chrome"":true,""on_mobile"":false,""language"":""en-US"",""screen_resolution"":[1440,900],""platform"":""MacIntel"",""timezone"":""Europe/Berlin""}","17","1204.6250000001514","","","1558521667683","14","","Potsdam","[]","Potsdam","true","false","1745.824999998149"
"","html-voicekey-response","53","263634","0.0-4.49-0.49","7sgabt6kkwfsgck","{""user_agent"":""Mozilla/5.0 (Macintosh; Intel Mac OS X 10_14_4) AppleWebKit/537.36 (KHTML, like Gecko) Chrome/74.0.3729.169 Safari/537.36"",""on_chrome"":true,""on_mobile"":false,""language"":""en-US"",""screen_resolution"":[1440,900],""platform"":""MacIntel"",""timezone"":""Europe/Berlin""}","17","1555.6799999993295","","","1558521670031","18","","Forchheim","[]","Forchheim","true","true","2430.7900000058"
"","html-voicekey-response","54","266268","0.0-4.50-0.50","7sgabt6kkwfsgck","{""user_agent"":""Mozilla/5.0 (Macintosh; Intel Mac OS X 10_14_4) AppleWebKit/537.36 (KHTML, like Gecko) Chrome/74.0.3729.169 Safari/537.36"",""on_chrome"":true,""on_mobile"":false,""language"":""en-US"",""screen_resolution"":[1440,900],""platform"":""MacIntel"",""timezone"":""Europe/Berlin""}","17","1187.224999995879","","","1558521673066","19","","Frankfurt","[]","Frankfurt","true","true","2028.759999993781"
"","html-voicekey-response","55","268842","0.0-4.51-0.51","7sgabt6kkwfsgck","{""user_agent"":""Mozilla/5.0 (Macintosh; Intel Mac OS X 10_14_4) AppleWebKit/537.36 (KHTML, like Gecko) Chrome/74.0.3729.169 Safari/537.36"",""on_chrome"":true,""on_mobile"":false,""language"":""en-US"",""screen_resolution"":[1440,900],""platform"":""MacIntel"",""timezone"":""Europe/Berlin""}","17","1246.7749999940047","","","1558521675698","18","","Forchheim","[]","Forchheim","true","false","1971.8199999988428"
"","html-voicekey-response","56","270725","0.0-4.52-0.52","7sgabt6kkwfsgck","{""user_agent"":""Mozilla/5.0 (Macintosh; Intel Mac OS X 10_14_4) AppleWebKit/537.36 (KHTML, like Gecko) Chrome/74.0.3729.169 Safari/537.36"",""on_chrome"":true,""on_mobile"":false,""language"":""en-US"",""screen_resolution"":[1440,900],""platform"":""MacIntel"",""timezone"":""Europe/Berlin""}","17","721.989999999851","","","1558521678273","19","","Frankfurt","[]","Frankfurt","true","false","1280.9799999959068"
"","html-voicekey-response","57","273776","0.0-4.53-0.53","7sgabt6kkwfsgck","{""user_agent"":""Mozilla/5.0 (Macintosh; Intel Mac OS X 10_14_4) AppleWebKit/537.36 (KHTML, like Gecko) Chrome/74.0.3729.169 Safari/537.36"",""on_chrome"":true,""on_mobile"":false,""language"":""en-US"",""screen_resolution"":[1440,900],""platform"":""MacIntel"",""timezone"":""Europe/Berlin""}","17","1754.8350000013947","","","1558521680156","15","","Nürnberg","[]","Nürnberg","true","false","2448.0949999997392"
"","html-voicekey-response","58","276026","0.0-4.54-0.54","7sgabt6kkwfsgck","{""user_agent"":""Mozilla/5.0 (Macintosh; Intel Mac OS X 10_14_4) AppleWebKit/537.36 (KHTML, like Gecko) Chrome/74.0.3729.169 Safari/537.36"",""on_chrome"":true,""on_mobile"":false,""language"":""en-US"",""screen_resolution"":[1440,900],""platform"":""MacIntel"",""timezone"":""Europe/Berlin""}","17","954.7249999976251","","","1558521683207","16","","Schwangau","[]","Schwangau","true","false","1646.825000003446"
"","html-voicekey-response","59","286466","0.0-4.55-0.55","7sgabt6kkwfsgck","{""user_agent"":""Mozilla/5.0 (Macintosh; Intel Mac OS X 10_14_4) AppleWebKit/537.36 (KHTML, like Gecko) Chrome/74.0.3729.169 Safari/537.36"",""on_chrome"":true,""on_mobile"":false,""language"":""en-US"",""screen_resolution"":[1440,900],""platform"":""MacIntel"",""timezone"":""Europe/Berlin""}","17","Infinity","","","1558521685457","11","","Alfeld","[]","Alfeld","true","false","9837.570000003325"
"","html-voicekey-response","60","289024","0.0-4.56-0.56","7sgabt6kkwfsgck","{""user_agent"":""Mozilla/5.0 (Macintosh; Intel Mac OS X 10_14_4) AppleWebKit/537.36 (KHTML, like Gecko) Chrome/74.0.3729.169 Safari/537.36"",""on_chrome"":true,""on_mobile"":false,""language"":""en-US"",""screen_resolution"":[1440,900],""platform"":""MacIntel"",""timezone"":""Europe/Berlin""}","17","1429.4949999983423","","","1558521695897","7","","Erfurt","[]","Erfurt","true","false","1954.9299999998766"
"","html-voicekey-response","61","291223","0.0-4.57-0.57","7sgabt6kkwfsgck","{""user_agent"":""Mozilla/5.0 (Macintosh; Intel Mac OS X 10_14_4) AppleWebKit/537.36 (KHTML, like Gecko) Chrome/74.0.3729.169 Safari/537.36"",""on_chrome"":true,""on_mobile"":false,""language"":""en-US"",""screen_resolution"":[1440,900],""platform"":""MacIntel"",""timezone"":""Europe/Berlin""}","17","100","","","1558521698455","20","","Hamburg ","[]","Hamburg ","true","true","1596.8849999990198"
"","html-voicekey-response","62","293840","0.0-4.58-0.58","7sgabt6kkwfsgck","{""user_agent"":""Mozilla/5.0 (Macintosh; Intel Mac OS X 10_14_4) AppleWebKit/537.36 (KHTML, like Gecko) Chrome/74.0.3729.169 Safari/537.36"",""on_chrome"":true,""on_mobile"":false,""language"":""en-US"",""screen_resolution"":[1440,900],""platform"":""MacIntel"",""timezone"":""Europe/Berlin""}","17","1105.3499999996625","","","1558521700654","21","","Konstanz","[]","Konstanz","true","true","2013.7049999975716"
"","html-voicekey-response","63","295823","0.0-4.59-0.59","7sgabt6kkwfsgck","{""user_agent"":""Mozilla/5.0 (Macintosh; Intel Mac OS X 10_14_4) AppleWebKit/537.36 (KHTML, like Gecko) Chrome/74.0.3729.169 Safari/537.36"",""on_chrome"":true,""on_mobile"":false,""language"":""en-US"",""screen_resolution"":[1440,900],""platform"":""MacIntel"",""timezone"":""Europe/Berlin""}","17","905.5599999936297","","","1558521703271","20","","Hamburg ","[]","Hamburg ","true","false","1380.9949999995297"
"","html-voicekey-response","64","298874","0.0-4.60-0.60","7sgabt6kkwfsgck","{""user_agent"":""Mozilla/5.0 (Macintosh; Intel Mac OS X 10_14_4) AppleWebKit/537.36 (KHTML, like Gecko) Chrome/74.0.3729.169 Safari/537.36"",""on_chrome"":true,""on_mobile"":false,""language"":""en-US"",""screen_resolution"":[1440,900],""platform"":""MacIntel"",""timezone"":""Europe/Berlin""}","17","1588.7349999992061","","","1558521705254","21","","Konstanz","[]","Konstanz","true","false","2447.6700000013807"
"","html-voicekey-response","65","301086","0.0-4.61-0.61","7sgabt6kkwfsgck","{""user_agent"":""Mozilla/5.0 (Macintosh; Intel Mac OS X 10_14_4) AppleWebKit/537.36 (KHTML, like Gecko) Chrome/74.0.3729.169 Safari/537.36"",""on_chrome"":true,""on_mobile"":false,""language"":""en-US"",""screen_resolution"":[1440,900],""platform"":""MacIntel"",""timezone"":""Europe/Berlin""}","17","798.8799999964889","","","1558521708306","17","","Leipzig","[]","Leipzig","true","false","1607.9699999972945"
"","html-voicekey-response","66","304169","0.0-4.62-0.62","7sgabt6kkwfsgck","{""user_agent"":""Mozilla/5.0 (Macintosh; Intel Mac OS X 10_14_4) AppleWebKit/537.36 (KHTML, like Gecko) Chrome/74.0.3729.169 Safari/537.36"",""on_chrome"":true,""on_mobile"":false,""language"":""en-US"",""screen_resolution"":[1440,900],""platform"":""MacIntel"",""timezone"":""Europe/Berlin""}","17","1571.7099999981933","","","1558521710517","22","","Bamberg","[]","Bamberg","true","true","2480.004999997618"
"","html-voicekey-response","67","306835","0.0-4.63-0.63","7sgabt6kkwfsgck","{""user_agent"":""Mozilla/5.0 (Macintosh; Intel Mac OS X 10_14_4) AppleWebKit/537.36 (KHTML, like Gecko) Chrome/74.0.3729.169 Safari/537.36"",""on_chrome"":true,""on_mobile"":false,""language"":""en-US"",""screen_resolution"":[1440,900],""platform"":""MacIntel"",""timezone"":""Europe/Berlin""}","17","1338.6750000007219","","","1558521713599","11","","Alfeld","[]","Alfeld","true","false","2063.914999998815"
"","html-voicekey-response","68","310102","0.0-4.64-0.64","7sgabt6kkwfsgck","{""user_agent"":""Mozilla/5.0 (Macintosh; Intel Mac OS X 10_14_4) AppleWebKit/537.36 (KHTML, like Gecko) Chrome/74.0.3729.169 Safari/537.36"",""on_chrome"":true,""on_mobile"":false,""language"":""en-US"",""screen_resolution"":[1440,900],""platform"":""MacIntel"",""timezone"":""Europe/Berlin""}","17","1955.5200000048267","","","1558521716266","22","","Bamberg","[]","Bamberg","true","false","2664.635000000999"
"","html-voicekey-response","69","328660","0.0-4.65-0.65","7sgabt6kkwfsgck","{""user_agent"":""Mozilla/5.0 (Macintosh; Intel Mac OS X 10_14_4) AppleWebKit/537.36 (KHTML, like Gecko) Chrome/74.0.3729.169 Safari/537.36"",""on_chrome"":true,""on_mobile"":false,""language"":""en-US"",""screen_resolution"":[1440,900],""platform"":""MacIntel"",""timezone"":""Europe/Berlin""}","17","4011.8050000035787","","","1558521719535","18","","","[]","Forchheim","false","false","14552.505000006931"
"","html-voicekey-response","70","331287","0.0-4.66-0.66","7sgabt6kkwfsgck","{""user_agent"":""Mozilla/5.0 (Macintosh; Intel Mac OS X 10_14_4) AppleWebKit/537.36 (KHTML, like Gecko) Chrome/74.0.3729.169 Safari/537.36"",""on_chrome"":true,""on_mobile"":false,""language"":""en-US"",""screen_resolution"":[1440,900],""platform"":""MacIntel"",""timezone"":""Europe/Berlin""}","17","1481.4600000043633","","","1558521738091","19","","Frankfurt","[]","Frankfurt","true","false","2024.0650000050664"
"","html-voicekey-response","71","333503","0.0-4.67-0.67","7sgabt6kkwfsgck","{""user_agent"":""Mozilla/5.0 (Macintosh; Intel Mac OS X 10_14_4) AppleWebKit/537.36 (KHTML, like Gecko) Chrome/74.0.3729.169 Safari/537.36"",""on_chrome"":true,""on_mobile"":false,""language"":""en-US"",""screen_resolution"":[1440,900],""platform"":""MacIntel"",""timezone"":""Europe/Berlin""}","17","1154.3949999994134","","","1558521740718","12","","Dessau","[]","Dessau","true","false","1612.6799999983632"
"","html-voicekey-response","72","336303","0.0-4.68-0.68","7sgabt6kkwfsgck","{""user_agent"":""Mozilla/5.0 (Macintosh; Intel Mac OS X 10_14_4) AppleWebKit/537.36 (KHTML, like Gecko) Chrome/74.0.3729.169 Safari/537.36"",""on_chrome"":true,""on_mobile"":false,""language"":""en-US"",""screen_resolution"":[1440,900],""platform"":""MacIntel"",""timezone"":""Europe/Berlin""}","17","1388.7949999933248","","","1558521742934","23","","Stuttgart","[]","Stuttgart","true","true","2197.389999993902"
"","html-voicekey-response","73","338711","0.0-4.69-0.69","7sgabt6kkwfsgck","{""user_agent"":""Mozilla/5.0 (Macintosh; Intel Mac OS X 10_14_4) AppleWebKit/537.36 (KHTML, like Gecko) Chrome/74.0.3729.169 Safari/537.36"",""on_chrome"":true,""on_mobile"":false,""language"":""en-US"",""screen_resolution"":[1440,900],""platform"":""MacIntel"",""timezone"":""Europe/Berlin""}","17","1080.0250000045985","","","1558521745734","20","","Hamburg ","[]","Hamburg ","true","false","1805.3100000033737"
"","html-voicekey-response","74","342861","0.0-4.70-0.70","7sgabt6kkwfsgck","{""user_agent"":""Mozilla/5.0 (Macintosh; Intel Mac OS X 10_14_4) AppleWebKit/537.36 (KHTML, like Gecko) Chrome/74.0.3729.169 Safari/537.36"",""on_chrome"":true,""on_mobile"":false,""language"":""en-US"",""screen_resolution"":[1440,900],""platform"":""MacIntel"",""timezone"":""Europe/Berlin""}","17","2837.6400000068593","","","1558521748142","23","","Stuttgart","[]","Stuttgart","true","false","3546.955000005255"
"","html-voicekey-response","75","357178","0.0-4.71-0.71","7sgabt6kkwfsgck","{""user_agent"":""Mozilla/5.0 (Macintosh; Intel Mac OS X 10_14_4) AppleWebKit/537.36 (KHTML, like Gecko) Chrome/74.0.3729.169 Safari/537.36"",""on_chrome"":true,""on_mobile"":false,""language"":""en-US"",""screen_resolution"":[1440,900],""platform"":""MacIntel"",""timezone"":""Europe/Berlin""}","17","9422.150000000174","","","1558521752291","21","","","[]","Konstanz","false","false","10314.104999997653"
"","html-voicekey-response","76","371209","0.0-4.72-0.72","7sgabt6kkwfsgck","{""user_agent"":""Mozilla/5.0 (Macintosh; Intel Mac OS X 10_14_4) AppleWebKit/537.36 (KHTML, like Gecko) Chrome/74.0.3729.169 Safari/537.36"",""on_chrome"":true,""on_mobile"":false,""language"":""en-US"",""screen_resolution"":[1440,900],""platform"":""MacIntel"",""timezone"":""Europe/Berlin""}","17","9417.985000001709","","","1558521766609","22","","","[]","Bamberg","false","false","10026.299999997718"
"","html-voicekey-response","77","379119","0.0-4.73-0.73","7sgabt6kkwfsgck","{""user_agent"":""Mozilla/5.0 (Macintosh; Intel Mac OS X 10_14_4) AppleWebKit/537.36 (KHTML, like Gecko) Chrome/74.0.3729.169 Safari/537.36"",""on_chrome"":true,""on_mobile"":false,""language"":""en-US"",""screen_resolution"":[1440,900],""platform"":""MacIntel"",""timezone"":""Europe/Berlin""}","17","6530.829999997723","","","1558521780640","18","","Forchheim","[]","Forchheim","true","false","7306.524999999965"
"","html-voicekey-response","78","382615","0.0-4.74-0.74","7sgabt6kkwfsgck","{""user_agent"":""Mozilla/5.0 (Macintosh; Intel Mac OS X 10_14_4) AppleWebKit/537.36 (KHTML, like Gecko) Chrome/74.0.3729.169 Safari/537.36"",""on_chrome"":true,""on_mobile"":false,""language"":""en-US"",""screen_resolution"":[1440,900],""platform"":""MacIntel"",""timezone"":""Europe/Berlin""}","17","2217.995000000729","","","1558521788550","11","","Alfeld","[]","Alfeld","true","false","2893.065000003844"
"","html-voicekey-response","79","390981","0.0-4.75-0.75","7sgabt6kkwfsgck","{""user_agent"":""Mozilla/5.0 (Macintosh; Intel Mac OS X 10_14_4) AppleWebKit/537.36 (KHTML, like Gecko) Chrome/74.0.3729.169 Safari/537.36"",""on_chrome"":true,""on_mobile"":false,""language"":""en-US"",""screen_resolution"":[1440,900],""platform"":""MacIntel"",""timezone"":""Europe/Berlin""}","17","7254.050000004854","","","1558521792046","21","","Konstanz","[]","Konstanz","true","false","7762.670000003709"
"","html-voicekey-response","80","393322","0.0-4.76-0.76","7sgabt6kkwfsgck","{""user_agent"":""Mozilla/5.0 (Macintosh; Intel Mac OS X 10_14_4) AppleWebKit/537.36 (KHTML, like Gecko) Chrome/74.0.3729.169 Safari/537.36"",""on_chrome"":true,""on_mobile"":false,""language"":""en-US"",""screen_resolution"":[1440,900],""platform"":""MacIntel"",""timezone"":""Europe/Berlin""}","17","1079.4149999945425","","","1558521800412","23","","Stuttgart","[]","Stuttgart","true","false","1738.2699999943725"
"","html-voicekey-response","81","395839","0.0-4.77-0.77","7sgabt6kkwfsgck","{""user_agent"":""Mozilla/5.0 (Macintosh; Intel Mac OS X 10_14_4) AppleWebKit/537.36 (KHTML, like Gecko) Chrome/74.0.3729.169 Safari/537.36"",""on_chrome"":true,""on_mobile"":false,""language"":""en-US"",""screen_resolution"":[1440,900],""platform"":""MacIntel"",""timezone"":""Europe/Berlin""}","17","1438.7050000021468","","","1558521802753","24","","Köln","[]","Köln","true","true","1913.97500000312"
"","html-voicekey-response","82","406523","0.0-4.78-0.78","7sgabt6kkwfsgck","{""user_agent"":""Mozilla/5.0 (Macintosh; Intel Mac OS X 10_14_4) AppleWebKit/537.36 (KHTML, like Gecko) Chrome/74.0.3729.169 Safari/537.36"",""on_chrome"":true,""on_mobile"":false,""language"":""en-US"",""screen_resolution"":[1440,900],""platform"":""MacIntel"",""timezone"":""Europe/Berlin""}","17","9420.670000001182","","","1558521805270","18","","Forchheim","[]","Forchheim","true","false","10080.125000000407"
"","html-voicekey-response","83","409401","0.0-4.79-0.79","7sgabt6kkwfsgck","{""user_agent"":""Mozilla/5.0 (Macintosh; Intel Mac OS X 10_14_4) AppleWebKit/537.36 (KHTML, like Gecko) Chrome/74.0.3729.169 Safari/537.36"",""on_chrome"":true,""on_mobile"":false,""language"":""en-US"",""screen_resolution"":[1440,900],""platform"":""MacIntel"",""timezone"":""Europe/Berlin""}","17","1747.5100000027219","","","1558521815954","24","","Köln","[]","Köln","true","false","2274.5799999975134"
"","html-voicekey-response","84","412500","0.0-4.80-0.80","7sgabt6kkwfsgck","{""user_agent"":""Mozilla/5.0 (Macintosh; Intel Mac OS X 10_14_4) AppleWebKit/537.36 (KHTML, like Gecko) Chrome/74.0.3729.169 Safari/537.36"",""on_chrome"":true,""on_mobile"":false,""language"":""en-US"",""screen_resolution"":[1440,900],""platform"":""MacIntel"",""timezone"":""Europe/Berlin""}","17","1870.8950000016835","","","1558521818832","22","","Bamberg","[]","Bamberg","true","false","2496.4099999997416"
"","html-voicekey-response","85","414883","0.0-4.81-0.81","7sgabt6kkwfsgck","{""user_agent"":""Mozilla/5.0 (Macintosh; Intel Mac OS X 10_14_4) AppleWebKit/537.36 (KHTML, like Gecko) Chrome/74.0.3729.169 Safari/537.36"",""on_chrome"":true,""on_mobile"":false,""language"":""en-US"",""screen_resolution"":[1440,900],""platform"":""MacIntel"",""timezone"":""Europe/Berlin""}","17","1187.8649999942631","","","1558521821931","1","","Magdeburg","[]","Magdeburg","true","false","1779.8799999945913"
"","html-voicekey-response","86","417536","0.0-4.82-0.82","7sgabt6kkwfsgck","{""user_agent"":""Mozilla/5.0 (Macintosh; Intel Mac OS X 10_14_4) AppleWebKit/537.36 (KHTML, like Gecko) Chrome/74.0.3729.169 Safari/537.36"",""on_chrome"":true,""on_mobile"":false,""language"":""en-US"",""screen_resolution"":[1440,900],""platform"":""MacIntel"",""timezone"":""Europe/Berlin""}","17","1403.7000000042376","","","1558521824316","21","","Konstanz","[]","Konstanz","true","false","2045.5150000052527"
"","html-voicekey-response","87","421275","0.0-4.83-0.83","7sgabt6kkwfsgck","{""user_agent"":""Mozilla/5.0 (Macintosh; Intel Mac OS X 10_14_4) AppleWebKit/537.36 (KHTML, like Gecko) Chrome/74.0.3729.169 Safari/537.36"",""on_chrome"":true,""on_mobile"":false,""language"":""en-US"",""screen_resolution"":[1440,900],""platform"":""MacIntel"",""timezone"":""Europe/Berlin""}","17","2277.8199999973644","","","1558521826967","25","","Osnabrück","[]","Osnabrück","true","true","3136.754999999539"
"","html-voicekey-response","88","427491","0.0-4.84-0.84","7sgabt6kkwfsgck","{""user_agent"":""Mozilla/5.0 (Macintosh; Intel Mac OS X 10_14_4) AppleWebKit/537.36 (KHTML, like Gecko) Chrome/74.0.3729.169 Safari/537.36"",""on_chrome"":true,""on_mobile"":false,""language"":""en-US"",""screen_resolution"":[1440,900],""platform"":""MacIntel"",""timezone"":""Europe/Berlin""}","17","4954.149999999418","","","1558521830707","18","","Forchheim","[]","Forchheim","true","false","5611.680000001797"
"","html-voicekey-response","89","437999","0.0-4.85-0.85","7sgabt6kkwfsgck","{""user_agent"":""Mozilla/5.0 (Macintosh; Intel Mac OS X 10_14_4) AppleWebKit/537.36 (KHTML, like Gecko) Chrome/74.0.3729.169 Safari/537.36"",""on_chrome"":true,""on_mobile"":false,""language"":""en-US"",""screen_resolution"":[1440,900],""platform"":""MacIntel"",""timezone"":""Europe/Berlin""}","17","9162.099999995762","","","1558521836923","25","","Osnabrück","[]","Osnabrück","true","false","9904.609999997774"
"","html-voicekey-response","90","440044","0.0-4.86-0.86","7sgabt6kkwfsgck","{""user_agent"":""Mozilla/5.0 (Macintosh; Intel Mac OS X 10_14_4) AppleWebKit/537.36 (KHTML, like Gecko) Chrome/74.0.3729.169 Safari/537.36"",""on_chrome"":true,""on_mobile"":false,""language"":""en-US"",""screen_resolution"":[1440,900],""platform"":""MacIntel"",""timezone"":""Europe/Berlin""}","17","949.5899999981979","","","1558521847430","2","","Berlin","[]","Berlin","true","false","1441.0250000000815"
"","html-voicekey-response","91","457928","0.0-4.87-0.87","7sgabt6kkwfsgck","{""user_agent"":""Mozilla/5.0 (Macintosh; Intel Mac OS X 10_14_4) AppleWebKit/537.36 (KHTML, like Gecko) Chrome/74.0.3729.169 Safari/537.36"",""on_chrome"":true,""on_mobile"":false,""language"":""en-US"",""screen_resolution"":[1440,900],""platform"":""MacIntel"",""timezone"":""Europe/Berlin""}","17","3353.7450000020094","","","1558521849475","3","","","[]","Ingolstadt","false","false","13879.79500000074"
"","html-voicekey-response","92","466105","0.0-4.88-0.88","7sgabt6kkwfsgck","{""user_agent"":""Mozilla/5.0 (Macintosh; Intel Mac OS X 10_14_4) AppleWebKit/537.36 (KHTML, like Gecko) Chrome/74.0.3729.169 Safari/537.36"",""on_chrome"":true,""on_mobile"":false,""language"":""en-US"",""screen_resolution"":[1440,900],""platform"":""MacIntel"",""timezone"":""Europe/Berlin""}","17","6631.13999999935","","","1558521867359","11","","Alfeld","[]","Alfeld","true","false","7573.819999997795"
"","html-voicekey-response","93","469031","0.0-4.89-0.89","7sgabt6kkwfsgck","{""user_agent"":""Mozilla/5.0 (Macintosh; Intel Mac OS X 10_14_4) AppleWebKit/537.36 (KHTML, like Gecko) Chrome/74.0.3729.169 Safari/537.36"",""on_chrome"":true,""on_mobile"":false,""language"":""en-US"",""screen_resolution"":[1440,900],""platform"":""MacIntel"",""timezone"":""Europe/Berlin""}","17","963.2499999950873","","","1558521875536","24","","Köln","[]","Köln","true","false","2322.199999995064"
"","html-voicekey-response","94","474031","0.0-4.90-0.90","7sgabt6kkwfsgck","{""user_agent"":""Mozilla/5.0 (Macintosh; Intel Mac OS X 10_14_4) AppleWebKit/537.36 (KHTML, like Gecko) Chrome/74.0.3729.169 Safari/537.36"",""on_chrome"":true,""on_mobile"":false,""language"":""en-US"",""screen_resolution"":[1440,900],""platform"":""MacIntel"",""timezone"":""Europe/Berlin""}","17","3670.5000000018395","","","1558521878462","18","","Forchheim","[]","Forchheim","true","false","4396.739999996498"
"","html-voicekey-response","95","491715","0.0-4.91-0.91","7sgabt6kkwfsgck","{""user_agent"":""Mozilla/5.0 (Macintosh; Intel Mac OS X 10_14_4) AppleWebKit/537.36 (KHTML, like Gecko) Chrome/74.0.3729.169 Safari/537.36"",""on_chrome"":true,""on_mobile"":false,""language"":""en-US"",""screen_resolution"":[1440,900],""platform"":""MacIntel"",""timezone"":""Europe/Berlin""}","17","1103.639999995567","","","1558521883462","5","","","[]","Aachen","false","false","13679.294999994454"
"","html-voicekey-response","96","494633","0.0-4.92-0.92","7sgabt6kkwfsgck","{""user_agent"":""Mozilla/5.0 (Macintosh; Intel Mac OS X 10_14_4) AppleWebKit/537.36 (KHTML, like Gecko) Chrome/74.0.3729.169 Safari/537.36"",""on_chrome"":true,""on_mobile"":false,""language"":""en-US"",""screen_resolution"":[1440,900],""platform"":""MacIntel"",""timezone"":""Europe/Berlin""}","17","1405.5299999980257","","","1558521901147","21","","Konstanz","[]","Konstanz","true","false","2314.279999998689"
"","html-voicekey-response","97","511301","0.0-4.93-0.93","7sgabt6kkwfsgck","{""user_agent"":""Mozilla/5.0 (Macintosh; Intel Mac OS X 10_14_4) AppleWebKit/537.36 (KHTML, like Gecko) Chrome/74.0.3729.169 Safari/537.36"",""on_chrome"":true,""on_mobile"":false,""language"":""en-US"",""screen_resolution"":[1440,900],""platform"":""MacIntel"",""timezone"":""Europe/Berlin""}","17","11104.809999998752","","","1558521904064","25","","","[]","Osnabrück","false","false","12662.789999994857"
"","html-voicekey-response","98","517645","0.0-4.94-0.94","7sgabt6kkwfsgck","{""user_agent"":""Mozilla/5.0 (Macintosh; Intel Mac OS X 10_14_4) AppleWebKit/537.36 (KHTML, like Gecko) Chrome/74.0.3729.169 Safari/537.36"",""on_chrome"":true,""on_mobile"":false,""language"":""en-US"",""screen_resolution"":[1440,900],""platform"":""MacIntel"",""timezone"":""Europe/Berlin""}","17","4780.359999998682","","","1558521920732","11","","Alfeld","[]","Alfeld","true","false","5740.129999998317"
"","html-voicekey-response","99","549854","0.0-4.95-0.95","7sgabt6kkwfsgck","{""user_agent"":""Mozilla/5.0 (Macintosh; Intel Mac OS X 10_14_4) AppleWebKit/537.36 (KHTML, like Gecko) Chrome/74.0.3729.169 Safari/537.36"",""on_chrome"":true,""on_mobile"":false,""language"":""en-US"",""screen_resolution"":[1440,900],""platform"":""MacIntel"",""timezone"":""Europe/Berlin""}","17","Infinity","","","1558521927077","3","","","[]","Ingolstadt","false","false","28202.430000004824"
"","html-voicekey-response","100","553076","0.0-4.96-0.96","7sgabt6kkwfsgck","{""user_agent"":""Mozilla/5.0 (Macintosh; Intel Mac OS X 10_14_4) AppleWebKit/537.36 (KHTML, like Gecko) Chrome/74.0.3729.169 Safari/537.36"",""on_chrome"":true,""on_mobile"":false,""language"":""en-US"",""screen_resolution"":[1440,900],""platform"":""MacIntel"",""timezone"":""Europe/Berlin""}","17","2042.7250000011177","","","1558521959286","18","","Forchheim","[]","Forchheim","true","false","2618.2350000017323"
"","html-voicekey-response","101","582858","0.0-4.97-0.97","7sgabt6kkwfsgck","{""user_agent"":""Mozilla/5.0 (Macintosh; Intel Mac OS X 10_14_4) AppleWebKit/537.36 (KHTML, like Gecko) Chrome/74.0.3729.169 Safari/537.36"",""on_chrome"":true,""on_mobile"":false,""language"":""en-US"",""screen_resolution"":[1440,900],""platform"":""MacIntel"",""timezone"":""Europe/Berlin""}","17","653.4850000041537","","","1558521962508","11","","","[]","Alfeld","false","false","25778.03000000131"
"","html-voicekey-response","102","601903","0.0-4.98-0.98","7sgabt6kkwfsgck","{""user_agent"":""Mozilla/5.0 (Macintosh; Intel Mac OS X 10_14_4) AppleWebKit/537.36 (KHTML, like Gecko) Chrome/74.0.3729.169 Safari/537.36"",""on_chrome"":true,""on_mobile"":false,""language"":""en-US"",""screen_resolution"":[1440,900],""platform"":""MacIntel"",""timezone"":""Europe/Berlin""}","17","13947.084999994118","","","1558521992291","25","","","[]","Osnabrück","false","false","15039.364999996847"
"","html-voicekey-response","103","609626","0.0-4.99-0.99","7sgabt6kkwfsgck","{""user_agent"":""Mozilla/5.0 (Macintosh; Intel Mac OS X 10_14_4) AppleWebKit/537.36 (KHTML, like Gecko) Chrome/74.0.3729.169 Safari/537.36"",""on_chrome"":true,""on_mobile"":false,""language"":""en-US"",""screen_resolution"":[1440,900],""platform"":""MacIntel"",""timezone"":""Europe/Berlin""}","17","6364.329999998305","","","1558522011335","11","","Alfeld","[]","Alfeld","true","false","7119.090000000084"
"","html-voicekey-response","104","631175","0.0-4.100-0.100","7sgabt6kkwfsgck","{""user_agent"":""Mozilla/5.0 (Macintosh; Intel Mac OS X 10_14_4) AppleWebKit/537.36 (KHTML, like Gecko) Chrome/74.0.3729.169 Safari/537.36"",""on_chrome"":true,""on_mobile"":false,""language"":""en-US"",""screen_resolution"":[1440,900],""platform"":""MacIntel"",""timezone"":""Europe/Berlin""}","17","100","","","1558522019058","3","","","[]","Ingolstadt","false","false","17544.92499999469"
"","html-voicekey-response","105","633619","0.0-4.101-0.101","7sgabt6kkwfsgck","{""user_agent"":""Mozilla/5.0 (Macintosh; Intel Mac OS X 10_14_4) AppleWebKit/537.36 (KHTML, like Gecko) Chrome/74.0.3729.169 Safari/537.36"",""on_chrome"":true,""on_mobile"":false,""language"":""en-US"",""screen_resolution"":[1440,900],""platform"":""MacIntel"",""timezone"":""Europe/Berlin""}","17","1298.579999996908","","","1558522040608","21","","Konstanz","[]","Konstanz","true","false","1840.0750000001863"
"","html-voicekey-response","106","649969","0.0-4.102-0.102","7sgabt6kkwfsgck","{""user_agent"":""Mozilla/5.0 (Macintosh; Intel Mac OS X 10_14_4) AppleWebKit/537.36 (KHTML, like Gecko) Chrome/74.0.3729.169 Safari/537.36"",""on_chrome"":true,""on_mobile"":false,""language"":""en-US"",""screen_resolution"":[1440,900],""platform"":""MacIntel"",""timezone"":""Europe/Berlin""}","17","Infinity","","","1558522043052","25","","Osnabrück","[]","Osnabrück","true","false","15744.849999995437"
"","html-voicekey-response","107","653290","0.0-4.103-0.103","7sgabt6kkwfsgck","{""user_agent"":""Mozilla/5.0 (Macintosh; Intel Mac OS X 10_14_4) AppleWebKit/537.36 (KHTML, like Gecko) Chrome/74.0.3729.169 Safari/537.36"",""on_chrome"":true,""on_mobile"":false,""language"":""en-US"",""screen_resolution"":[1440,900],""platform"":""MacIntel"",""timezone"":""Europe/Berlin""}","17","2142.569999998063","","","1558522059399","11","","Alfeld","[]","Alfeld","true","false","2718.2350000003353"
"","html-voicekey-response","108","655805","0.0-4.104-0.104","7sgabt6kkwfsgck","{""user_agent"":""Mozilla/5.0 (Macintosh; Intel Mac OS X 10_14_4) AppleWebKit/537.36 (KHTML, like Gecko) Chrome/74.0.3729.169 Safari/537.36"",""on_chrome"":true,""on_mobile"":false,""language"":""en-US"",""screen_resolution"":[1440,900],""platform"":""MacIntel"",""timezone"":""Europe/Berlin""}","17","1385.729999996233","","","1558522062722","13","","Chemnitz","[]","Chemnitz","true","false","1911.0299999957206"
"","html-voicekey-response","109","658973","0.0-4.105-0.105","7sgabt6kkwfsgck","{""user_agent"":""Mozilla/5.0 (Macintosh; Intel Mac OS X 10_14_4) AppleWebKit/537.36 (KHTML, like Gecko) Chrome/74.0.3729.169 Safari/537.36"",""on_chrome"":true,""on_mobile"":false,""language"":""en-US"",""screen_resolution"":[1440,900],""platform"":""MacIntel"",""timezone"":""Europe/Berlin""}","17","2053.6399999998744","","","1558522065238","18","","Forchheim","[]","Forchheim","true","false","2563.029999997583"
"","html-voicekey-response","110","662573","0.0-4.106-0.106","7sgabt6kkwfsgck","{""user_agent"":""Mozilla/5.0 (Macintosh; Intel Mac OS X 10_14_4) AppleWebKit/537.36 (KHTML, like Gecko) Chrome/74.0.3729.169 Safari/537.36"",""on_chrome"":true,""on_mobile"":false,""language"":""en-US"",""screen_resolution"":[1440,900],""platform"":""MacIntel"",""timezone"":""Europe/Berlin""}","17","2569.6700000060723","","","1558522068406","4","","Würzburg","[]","Würzburg","true","false","2994.4550000000745"
"","html-voicekey-response","111","668880","0.0-4.107-0.107","7sgabt6kkwfsgck","{""user_agent"":""Mozilla/5.0 (Macintosh; Intel Mac OS X 10_14_4) AppleWebKit/537.36 (KHTML, like Gecko) Chrome/74.0.3729.169 Safari/537.36"",""on_chrome"":true,""on_mobile"":false,""language"":""en-US"",""screen_resolution"":[1440,900],""platform"":""MacIntel"",""timezone"":""Europe/Berlin""}","17","4659.61499999857","","","1558522072007","3","","Ingolstadt","[]","Ingolstadt","true","false","5701.229999998817"
"","html-voicekey-response","112","673246","0.0-4.108-0.108","7sgabt6kkwfsgck","{""user_agent"":""Mozilla/5.0 (Macintosh; Intel Mac OS X 10_14_4) AppleWebKit/537.36 (KHTML, like Gecko) Chrome/74.0.3729.169 Safari/537.36"",""on_chrome"":true,""on_mobile"":false,""language"":""en-US"",""screen_resolution"":[1440,900],""platform"":""MacIntel"",""timezone"":""Europe/Berlin""}","17","Infinity","","","1558522078312","5","","Aachen","[]","Aachen","true","false","3761.7000000027474"
"","html-voicekey-response","113","675559","0.0-4.109-0.109","7sgabt6kkwfsgck","{""user_agent"":""Mozilla/5.0 (Macintosh; Intel Mac OS X 10_14_4) AppleWebKit/537.36 (KHTML, like Gecko) Chrome/74.0.3729.169 Safari/537.36"",""on_chrome"":true,""on_mobile"":false,""language"":""en-US"",""screen_resolution"":[1440,900],""platform"":""MacIntel"",""timezone"":""Europe/Berlin""}","17","1198.604999999376","","","1558522082679","9","","München","[]","München","true","false","1708.3500000007916"
"","html-voicekey-response","114","678292","0.0-4.110-0.110","7sgabt6kkwfsgck","{""user_agent"":""Mozilla/5.0 (Macintosh; Intel Mac OS X 10_14_4) AppleWebKit/537.36 (KHTML, like Gecko) Chrome/74.0.3729.169 Safari/537.36"",""on_chrome"":true,""on_mobile"":false,""language"":""en-US"",""screen_resolution"":[1440,900],""platform"":""MacIntel"",""timezone"":""Europe/Berlin""}","17","1652.2700000003447","","","1558522084992","8","","Gotha","[]","Gotha","true","false","2127.8499999971827"
"","html-voicekey-response","115","680258","0.0-4.111-0.111","7sgabt6kkwfsgck","{""user_agent"":""Mozilla/5.0 (Macintosh; Intel Mac OS X 10_14_4) AppleWebKit/537.36 (KHTML, like Gecko) Chrome/74.0.3729.169 Safari/537.36"",""on_chrome"":true,""on_mobile"":false,""language"":""en-US"",""screen_resolution"":[1440,900],""platform"":""MacIntel"",""timezone"":""Europe/Berlin""}","17","903.0450000007171","","","1558522087725","10","","Heidelberg","[]","Heidelberg","true","false","1361.5999999966007"
"","html-voicekey-response","116","682225","0.0-4.112-0.112","7sgabt6kkwfsgck","{""user_agent"":""Mozilla/5.0 (Macintosh; Intel Mac OS X 10_14_4) AppleWebKit/537.36 (KHTML, like Gecko) Chrome/74.0.3729.169 Safari/537.36"",""on_chrome"":true,""on_mobile"":false,""language"":""en-US"",""screen_resolution"":[1440,900],""platform"":""MacIntel"",""timezone"":""Europe/Berlin""}","17","903.9600000049453","","","1558522089690","6","","Dresden","[]","Dresden","true","false","1361.9250000047032"
"","html-voicekey-response","117","684575","0.0-4.113-0.113","7sgabt6kkwfsgck","{""user_agent"":""Mozilla/5.0 (Macintosh; Intel Mac OS X 10_14_4) AppleWebKit/537.36 (KHTML, like Gecko) Chrome/74.0.3729.169 Safari/537.36"",""on_chrome"":true,""on_mobile"":false,""language"":""en-US"",""screen_resolution"":[1440,900],""platform"":""MacIntel"",""timezone"":""Europe/Berlin""}","17","1253.2949999965263","","","1558522091657","14","","Potsdam","[]","Potsdam","true","false","1745.595000000205"
"","html-voicekey-response","118","687000","0.0-4.114-0.114","7sgabt6kkwfsgck","{""user_agent"":""Mozilla/5.0 (Macintosh; Intel Mac OS X 10_14_4) AppleWebKit/537.36 (KHTML, like Gecko) Chrome/74.0.3729.169 Safari/537.36"",""on_chrome"":true,""on_mobile"":false,""language"":""en-US"",""screen_resolution"":[1440,900],""platform"":""MacIntel"",""timezone"":""Europe/Berlin""}","17","1310.520000000694","","","1558522094009","16","","Schwangau","[]","Schwangau","true","false","1818.7449999968521"
"","html-voicekey-response","119","689534","0.0-4.115-0.115","7sgabt6kkwfsgck","{""user_agent"":""Mozilla/5.0 (Macintosh; Intel Mac OS X 10_14_4) AppleWebKit/537.36 (KHTML, like Gecko) Chrome/74.0.3729.169 Safari/537.36"",""on_chrome"":true,""on_mobile"":false,""language"":""en-US"",""screen_resolution"":[1440,900],""platform"":""MacIntel"",""timezone"":""Europe/Berlin""}","17","1386.589999996219","","","1558522096433","15","","Nürnberg","[]","Nürnberg","true","false","1928.8549999982351"
"","html-voicekey-response","120","696450","0.0-4.116-0.116","7sgabt6kkwfsgck","{""user_agent"":""Mozilla/5.0 (Macintosh; Intel Mac OS X 10_14_4) AppleWebKit/537.36 (KHTML, like Gecko) Chrome/74.0.3729.169 Safari/537.36"",""on_chrome"":true,""on_mobile"":false,""language"":""en-US"",""screen_resolution"":[1440,900],""platform"":""MacIntel"",""timezone"":""Europe/Berlin""}","17","5718.9799999996085","","","1558522098967","11","","Alfeld","[]","Alfeld","true","false","6310.920000003651"
"","html-voicekey-response","121","710441","0.0-4.117-0.117","7sgabt6kkwfsgck","{""user_agent"":""Mozilla/5.0 (Macintosh; Intel Mac OS X 10_14_4) AppleWebKit/537.36 (KHTML, like Gecko) Chrome/74.0.3729.169 Safari/537.36"",""on_chrome"":true,""on_mobile"":false,""language"":""en-US"",""screen_resolution"":[1440,900],""platform"":""MacIntel"",""timezone"":""Europe/Berlin""}","17","2877.180000004801","","","1558522105883","25","","","[]","Osnabrück","false","false","9985.160000003874"
"","html-voicekey-response","122","713116","0.0-4.118-0.118","7sgabt6kkwfsgck","{""user_agent"":""Mozilla/5.0 (Macintosh; Intel Mac OS X 10_14_4) AppleWebKit/537.36 (KHTML, like Gecko) Chrome/74.0.3729.169 Safari/537.36"",""on_chrome"":true,""on_mobile"":false,""language"":""en-US"",""screen_resolution"":[1440,900],""platform"":""MacIntel"",""timezone"":""Europe/Berlin""}","17","1477.1800000032877","","","1558522119875","11","","Alfeld","[]","Alfeld","true","false","2069.5300000007264"
"","html-voicekey-response","123","722015","0.0-4.119-0.119","7sgabt6kkwfsgck","{""user_agent"":""Mozilla/5.0 (Macintosh; Intel Mac OS X 10_14_4) AppleWebKit/537.36 (KHTML, like Gecko) Chrome/74.0.3729.169 Safari/537.36"",""on_chrome"":true,""on_mobile"":false,""language"":""en-US"",""screen_resolution"":[1440,900],""platform"":""MacIntel"",""timezone"":""Europe/Berlin""}","17","236.19499999945984","","","1558522122549","22","","","[]","Bamberg","false","false","4894.929999995045"
"","html-voicekey-response","124","724311","0.0-4.120-0.120","7sgabt6kkwfsgck","{""user_agent"":""Mozilla/5.0 (Macintosh; Intel Mac OS X 10_14_4) AppleWebKit/537.36 (KHTML, like Gecko) Chrome/74.0.3729.169 Safari/537.36"",""on_chrome"":true,""on_mobile"":false,""language"":""en-US"",""screen_resolution"":[1440,900],""platform"":""MacIntel"",""timezone"":""Europe/Berlin""}","17","1181.2649999937044","","","1558522131448","20","","Hamburg ","[]","Hamburg ","true","false","1690.9149999993388"
"","html-voicekey-response","125","728677","0.0-4.121-0.121","7sgabt6kkwfsgck","{""user_agent"":""Mozilla/5.0 (Macintosh; Intel Mac OS X 10_14_4) AppleWebKit/537.36 (KHTML, like Gecko) Chrome/74.0.3729.169 Safari/537.36"",""on_chrome"":true,""on_mobile"":false,""language"":""en-US"",""screen_resolution"":[1440,900],""platform"":""MacIntel"",""timezone"":""Europe/Berlin""}","17","1151.0750000033063","","","1558522133745","19","","Frankfurt","[]","Frankfurt","true","false","3760.2499999993015"
"","html-voicekey-response","126","739468","0.0-4.122-0.122","7sgabt6kkwfsgck","{""user_agent"":""Mozilla/5.0 (Macintosh; Intel Mac OS X 10_14_4) AppleWebKit/537.36 (KHTML, like Gecko) Chrome/74.0.3729.169 Safari/537.36"",""on_chrome"":true,""on_mobile"":false,""language"":""en-US"",""screen_resolution"":[1440,900],""platform"":""MacIntel"",""timezone"":""Europe/Berlin""}","17","7709.9649999962185","","","1558522138111","3","","Ingolstadt","[]","Ingolstadt","true","false","10185.509999995702"
"","html-voicekey-response","127","742344","0.0-4.123-0.123","7sgabt6kkwfsgck","{""user_agent"":""Mozilla/5.0 (Macintosh; Intel Mac OS X 10_14_4) AppleWebKit/537.36 (KHTML, like Gecko) Chrome/74.0.3729.169 Safari/537.36"",""on_chrome"":true,""on_mobile"":false,""language"":""en-US"",""screen_resolution"":[1440,900],""platform"":""MacIntel"",""timezone"":""Europe/Berlin""}","17","194.0750000009779","","","1558522148902","18","","Forchheim","[]","Forchheim","true","false","2270.080000001937"
"","html-voicekey-response","128","747209","0.0-4.124-0.124","7sgabt6kkwfsgck","{""user_agent"":""Mozilla/5.0 (Macintosh; Intel Mac OS X 10_14_4) AppleWebKit/537.36 (KHTML, like Gecko) Chrome/74.0.3729.169 Safari/537.36"",""on_chrome"":true,""on_mobile"":false,""language"":""en-US"",""screen_resolution"":[1440,900],""platform"":""MacIntel"",""timezone"":""Europe/Berlin""}","17","3667.5800000028453","","","1558522151778","11","","Alfeld","[]","Alfeld","true","false","4260.065000002156"
"","html-voicekey-response","129","749393","0.0-4.125-0.125","7sgabt6kkwfsgck","{""user_agent"":""Mozilla/5.0 (Macintosh; Intel Mac OS X 10_14_4) AppleWebKit/537.36 (KHTML, like Gecko) Chrome/74.0.3729.169 Safari/537.36"",""on_chrome"":true,""on_mobile"":false,""language"":""en-US"",""screen_resolution"":[1440,900],""platform"":""MacIntel"",""timezone"":""Europe/Berlin""}","17","1285.750000004517","","","1558522156643","17","","Leipzig","[]","Leipzig","true","false","1577.7099999978673"
"","html-voicekey-response","130","752085","0.0-4.126-0.126","7sgabt6kkwfsgck","{""user_agent"":""Mozilla/5.0 (Macintosh; Intel Mac OS X 10_14_4) AppleWebKit/537.36 (KHTML, like Gecko) Chrome/74.0.3729.169 Safari/537.36"",""on_chrome"":true,""on_mobile"":false,""language"":""en-US"",""screen_resolution"":[1440,900],""platform"":""MacIntel"",""timezone"":""Europe/Berlin""}","17","1518.7249999962282","","","1558522158827","23","","Stuttgart","[]","Stuttgart","true","false","2085.6649999987567"
"","html-voicekey-response","131","754984","0.0-4.127-0.127","7sgabt6kkwfsgck","{""user_agent"":""Mozilla/5.0 (Macintosh; Intel Mac OS X 10_14_4) AppleWebKit/537.36 (KHTML, like Gecko) Chrome/74.0.3729.169 Safari/537.36"",""on_chrome"":true,""on_mobile"":false,""language"":""en-US"",""screen_resolution"":[1440,900],""platform"":""MacIntel"",""timezone"":""Europe/Berlin""}","17","1684.609999998333","","","1558522161519","12","","Dessau","[]","Dessau","true","false","2293.1249999965075"
"","html-voicekey-response","132","757550","0.0-4.128-0.128","7sgabt6kkwfsgck","{""user_agent"":""Mozilla/5.0 (Macintosh; Intel Mac OS X 10_14_4) AppleWebKit/537.36 (KHTML, like Gecko) Chrome/74.0.3729.169 Safari/537.36"",""on_chrome"":true,""on_mobile"":false,""language"":""en-US"",""screen_resolution"":[1440,900],""platform"":""MacIntel"",""timezone"":""Europe/Berlin""}","17","1168.1549999938347","","","1558522164417","5","","Aachen","[]","Aachen","true","false","1960.885000000475"
"","html-voicekey-response","133","764702","0.0-4.129-0.129","7sgabt6kkwfsgck","{""user_agent"":""Mozilla/5.0 (Macintosh; Intel Mac OS X 10_14_4) AppleWebKit/537.36 (KHTML, like Gecko) Chrome/74.0.3729.169 Safari/537.36"",""on_chrome"":true,""on_mobile"":false,""language"":""en-US"",""screen_resolution"":[1440,900],""platform"":""MacIntel"",""timezone"":""Europe/Berlin""}","17","6017.974999996926","","","1558522166985","25","","Osnabrück","[]","Osnabrück","true","false","6543.785000001779"
"","html-voicekey-response","134","767964","0.0-4.130-0.130","7sgabt6kkwfsgck","{""user_agent"":""Mozilla/5.0 (Macintosh; Intel Mac OS X 10_14_4) AppleWebKit/537.36 (KHTML, like Gecko) Chrome/74.0.3729.169 Safari/537.36"",""on_chrome"":true,""on_mobile"":false,""language"":""en-US"",""screen_resolution"":[1440,900],""platform"":""MacIntel"",""timezone"":""Europe/Berlin""}","17","263.97500000332946","","","1558522174136","11","","Alfeld","[]","Alfeld","true","false","2655.610000001616"
"","html-voicekey-response","135","770264","0.0-4.131-0.131","7sgabt6kkwfsgck","{""user_agent"":""Mozilla/5.0 (Macintosh; Intel Mac OS X 10_14_4) AppleWebKit/537.36 (KHTML, like Gecko) Chrome/74.0.3729.169 Safari/537.36"",""on_chrome"":true,""on_mobile"":false,""language"":""en-US"",""screen_resolution"":[1440,900],""platform"":""MacIntel"",""timezone"":""Europe/Berlin""}","17","1168.434999993979","","","1558522177398","22","","Bamberg","[]","Bamberg","true","false","1693.6499999938533"
"","html-voicekey-response","136","772515","0.0-4.132-0.132","7sgabt6kkwfsgck","{""user_agent"":""Mozilla/5.0 (Macintosh; Intel Mac OS X 10_14_4) AppleWebKit/537.36 (KHTML, like Gecko) Chrome/74.0.3729.169 Safari/537.36"",""on_chrome"":true,""on_mobile"":false,""language"":""en-US"",""screen_resolution"":[1440,900],""platform"":""MacIntel"",""timezone"":""Europe/Berlin""}","17","1184.5150000024355","","","1558522179698","7","","Erfurt","[]","Erfurt","true","false","1644.5200000016484"
"","html-voicekey-response","137","775781","0.0-4.133-0.133","7sgabt6kkwfsgck","{""user_agent"":""Mozilla/5.0 (Macintosh; Intel Mac OS X 10_14_4) AppleWebKit/537.36 (KHTML, like Gecko) Chrome/74.0.3729.169 Safari/537.36"",""on_chrome"":true,""on_mobile"":false,""language"":""en-US"",""screen_resolution"":[1440,900],""platform"":""MacIntel"",""timezone"":""Europe/Berlin""}","17","1817.7850000009407","","","1558522181949","26","","Freiburg","[]","Freiburg","true","true","2660.0250000047963"
"","html-voicekey-response","138","779122","0.0-4.134-0.134","7sgabt6kkwfsgck","{""user_agent"":""Mozilla/5.0 (Macintosh; Intel Mac OS X 10_14_4) AppleWebKit/537.36 (KHTML, like Gecko) Chrome/74.0.3729.169 Safari/537.36"",""on_chrome"":true,""on_mobile"":false,""language"":""en-US"",""screen_resolution"":[1440,900],""platform"":""MacIntel"",""timezone"":""Europe/Berlin""}","17","1677.0000000049827","","","1558522185215","27","","Tübingen","[]","Tübingen","true","true","2735.3250000015832"
"","html-voicekey-response","139","783439","0.0-4.135-0.135","7sgabt6kkwfsgck","{""user_agent"":""Mozilla/5.0 (Macintosh; Intel Mac OS X 10_14_4) AppleWebKit/537.36 (KHTML, like Gecko) Chrome/74.0.3729.169 Safari/537.36"",""on_chrome"":true,""on_mobile"":false,""language"":""en-US"",""screen_resolution"":[1440,900],""platform"":""MacIntel"",""timezone"":""Europe/Berlin""}","17","3052.5750000030735","","","1558522188556","26","","Freiburg","[]","Freiburg","true","false","3710.810000004014"
"","html-voicekey-response","140","786773","0.0-4.136-0.136","7sgabt6kkwfsgck","{""user_agent"":""Mozilla/5.0 (Macintosh; Intel Mac OS X 10_14_4) AppleWebKit/537.36 (KHTML, like Gecko) Chrome/74.0.3729.169 Safari/537.36"",""on_chrome"":true,""on_mobile"":false,""language"":""en-US"",""screen_resolution"":[1440,900],""platform"":""MacIntel"",""timezone"":""Europe/Berlin""}","17","2002.2550000010292","","","1558522192873","27","","Tübingen","[]","Tübingen","true","false","2726.8699999985984"
"","html-voicekey-response","141","795783","0.0-4.137-0.137","7sgabt6kkwfsgck","{""user_agent"":""Mozilla/5.0 (Macintosh; Intel Mac OS X 10_14_4) AppleWebKit/537.36 (KHTML, like Gecko) Chrome/74.0.3729.169 Safari/537.36"",""on_chrome"":true,""on_mobile"":false,""language"":""en-US"",""screen_resolution"":[1440,900],""platform"":""MacIntel"",""timezone"":""Europe/Berlin""}","17","7061.384999995329","","","1558522196207","25","","Osnabrück","[]","Osnabrück","true","false","8403.924999998766"
"","html-voicekey-response","142","804391","0.0-4.138-0.138","7sgabt6kkwfsgck","{""user_agent"":""Mozilla/5.0 (Macintosh; Intel Mac OS X 10_14_4) AppleWebKit/537.36 (KHTML, like Gecko) Chrome/74.0.3729.169 Safari/537.36"",""on_chrome"":true,""on_mobile"":false,""language"":""en-US"",""screen_resolution"":[1440,900],""platform"":""MacIntel"",""timezone"":""Europe/Berlin""}","17","Infinity","","","1558522205218","3","","Ingolstadt","[]","Ingolstadt","true","false","8000.635000003967"
"","html-voicekey-response","143","807276","0.0-4.139-0.139","7sgabt6kkwfsgck","{""user_agent"":""Mozilla/5.0 (Macintosh; Intel Mac OS X 10_14_4) AppleWebKit/537.36 (KHTML, like Gecko) Chrome/74.0.3729.169 Safari/537.36"",""on_chrome"":true,""on_mobile"":false,""language"":""en-US"",""screen_resolution"":[1440,900],""platform"":""MacIntel"",""timezone"":""Europe/Berlin""}","17","1651.67000000095","","","1558522213825","24","","Köln","[]","Köln","true","false","2277.2100000001956"
"","html-voicekey-response","144","810332","0.0-4.140-0.140","7sgabt6kkwfsgck","{""user_agent"":""Mozilla/5.0 (Macintosh; Intel Mac OS X 10_14_4) AppleWebKit/537.36 (KHTML, like Gecko) Chrome/74.0.3729.169 Safari/537.36"",""on_chrome"":true,""on_mobile"":false,""language"":""en-US"",""screen_resolution"":[1440,900],""platform"":""MacIntel"",""timezone"":""Europe/Berlin""}","17","1458.4649999977323","","","1558522216710","28","","Regensburg","[]","Regensburg","true","true","2450.270000001183"
"","html-voicekey-response","145","834833","0.0-4.141-0.141","7sgabt6kkwfsgck","{""user_agent"":""Mozilla/5.0 (Macintosh; Intel Mac OS X 10_14_4) AppleWebKit/537.36 (KHTML, like Gecko) Chrome/74.0.3729.169 Safari/537.36"",""on_chrome"":true,""on_mobile"":false,""language"":""en-US"",""screen_resolution"":[1440,900],""platform"":""MacIntel"",""timezone"":""Europe/Berlin""}","17","18933.914999995824","","","1558522219767","25","","","[]","Osnabrück","false","false","20492.174999999464"
