"value","trial_type","trial_index","time_elapsed","internal_node_id","subject","browser_info","participant_number","rt","responses","view_history","presentation_start_time","id","text","response","keypresses","answer","correct","study","experimenter_rt"
"","call-function","0","2","0.0-0.0","h6j7mxym6hepf0c","{""user_agent"":""Mozilla/5.0 (Macintosh; Intel Mac OS X 10_14_4) AppleWebKit/537.36 (KHTML, like Gecko) Chrome/74.0.3729.169 Safari/537.36"",""on_chrome"":true,""on_mobile"":false,""language"":""en-US"",""screen_resolution"":[1440,900],""platform"":""MacIntel"",""timezone"":""Europe/Berlin""}","18","","","","","","","","","","","",""
"","survey-text","1","8149","0.0-1.0","h6j7mxym6hepf0c","{""user_agent"":""Mozilla/5.0 (Macintosh; Intel Mac OS X 10_14_4) AppleWebKit/537.36 (KHTML, like Gecko) Chrome/74.0.3729.169 Safari/537.36"",""on_chrome"":true,""on_mobile"":false,""language"":""en-US"",""screen_resolution"":[1440,900],""platform"":""MacIntel"",""timezone"":""Europe/Berlin""}","18","8145","{""Q0"":""18""}","","","","","","","","","",""
"","instructions","2","136333","0.0-2.0","h6j7mxym6hepf0c","{""user_agent"":""Mozilla/5.0 (Macintosh; Intel Mac OS X 10_14_4) AppleWebKit/537.36 (KHTML, like Gecko) Chrome/74.0.3729.169 Safari/537.36"",""on_chrome"":true,""on_mobile"":false,""language"":""en-US"",""screen_resolution"":[1440,900],""platform"":""MacIntel"",""timezone"":""Europe/Berlin""}","18","128183","","[{""page_index"":0,""viewing_time"":128183}]","","","","","","","","",""
"","call-function","3","136334","0.0-3.0","h6j7mxym6hepf0c","{""user_agent"":""Mozilla/5.0 (Macintosh; Intel Mac OS X 10_14_4) AppleWebKit/537.36 (KHTML, like Gecko) Chrome/74.0.3729.169 Safari/537.36"",""on_chrome"":true,""on_mobile"":false,""language"":""en-US"",""screen_resolution"":[1440,900],""platform"":""MacIntel"",""timezone"":""Europe/Berlin""}","18","","","","","","","","","","","",""
"","html-voicekey-response","4","140570","0.0-4.0-0.0","h6j7mxym6hepf0c","{""user_agent"":""Mozilla/5.0 (Macintosh; Intel Mac OS X 10_14_4) AppleWebKit/537.36 (KHTML, like Gecko) Chrome/74.0.3729.169 Safari/537.36"",""on_chrome"":true,""on_mobile"":false,""language"":""en-US"",""screen_resolution"":[1440,900],""platform"":""MacIntel"",""timezone"":""Europe/Berlin""}","18","2879.770000001218","","","1558531155522","1","","Magdeburg","[]","Magdeburg","true","true","3632.065000005241"
"","html-voicekey-response","5","144969","0.0-4.1-0.1","h6j7mxym6hepf0c","{""user_agent"":""Mozilla/5.0 (Macintosh; Intel Mac OS X 10_14_4) AppleWebKit/537.36 (KHTML, like Gecko) Chrome/74.0.3729.169 Safari/537.36"",""on_chrome"":true,""on_mobile"":false,""language"":""en-US"",""screen_resolution"":[1440,900],""platform"":""MacIntel"",""timezone"":""Europe/Berlin""}","18","3068.3000000006637","","","1558531159760","1","","Magdeburg","[]","Magdeburg","true","false","3793.8450000001467"
"","html-voicekey-response","6","148388","0.0-4.2-0.2","h6j7mxym6hepf0c","{""user_agent"":""Mozilla/5.0 (Macintosh; Intel Mac OS X 10_14_4) AppleWebKit/537.36 (KHTML, like Gecko) Chrome/74.0.3729.169 Safari/537.36"",""on_chrome"":true,""on_mobile"":false,""language"":""en-US"",""screen_resolution"":[1440,900],""platform"":""MacIntel"",""timezone"":""Europe/Berlin""}","18","2071.2700000020327","","","1558531164157","2","","Berlin","[]","Berlin","true","true","2813.69000000268"
"","html-voicekey-response","7","151190","0.0-4.3-0.3","h6j7mxym6hepf0c","{""user_agent"":""Mozilla/5.0 (Macintosh; Intel Mac OS X 10_14_4) AppleWebKit/537.36 (KHTML, like Gecko) Chrome/74.0.3729.169 Safari/537.36"",""on_chrome"":true,""on_mobile"":false,""language"":""en-US"",""screen_resolution"":[1440,900],""platform"":""MacIntel"",""timezone"":""Europe/Berlin""}","18","1608.2699999986567","","","1558531167575","2","","Berlin","[]","Berlin","true","false","2200.2549999961047"
"","html-voicekey-response","8","155990","0.0-4.4-0.4","h6j7mxym6hepf0c","{""user_agent"":""Mozilla/5.0 (Macintosh; Intel Mac OS X 10_14_4) AppleWebKit/537.36 (KHTML, like Gecko) Chrome/74.0.3729.169 Safari/537.36"",""on_chrome"":true,""on_mobile"":false,""language"":""en-US"",""screen_resolution"":[1440,900],""platform"":""MacIntel"",""timezone"":""Europe/Berlin""}","18","3371.7950000007754","","","1558531170377","3","","Ingolstadt","[]","Ingolstadt","true","true","4197.739999995974"
"","html-voicekey-response","9","159559","0.0-4.5-0.5","h6j7mxym6hepf0c","{""user_agent"":""Mozilla/5.0 (Macintosh; Intel Mac OS X 10_14_4) AppleWebKit/537.36 (KHTML, like Gecko) Chrome/74.0.3729.169 Safari/537.36"",""on_chrome"":true,""on_mobile"":false,""language"":""en-US"",""screen_resolution"":[1440,900],""platform"":""MacIntel"",""timezone"":""Europe/Berlin""}","18","1721.2400000006078","","","1558531175178","4","","Würzburg","[]","Würzburg","true","true","2963.5699999998906"
"","html-voicekey-response","10","162367","0.0-4.6-0.6","h6j7mxym6hepf0c","{""user_agent"":""Mozilla/5.0 (Macintosh; Intel Mac OS X 10_14_4) AppleWebKit/537.36 (KHTML, like Gecko) Chrome/74.0.3729.169 Safari/537.36"",""on_chrome"":true,""on_mobile"":false,""language"":""en-US"",""screen_resolution"":[1440,900],""platform"":""MacIntel"",""timezone"":""Europe/Berlin""}","18","1228.7499999964261","","","1558531178746","3","","Ingolstadt","[]","Ingolstadt","true","false","2205.3000000014435"
"","html-voicekey-response","11","165182","0.0-4.7-0.7","h6j7mxym6hepf0c","{""user_agent"":""Mozilla/5.0 (Macintosh; Intel Mac OS X 10_14_4) AppleWebKit/537.36 (KHTML, like Gecko) Chrome/74.0.3729.169 Safari/537.36"",""on_chrome"":true,""on_mobile"":false,""language"":""en-US"",""screen_resolution"":[1440,900],""platform"":""MacIntel"",""timezone"":""Europe/Berlin""}","18","1588.0199999972597","","","1558531181554","4","","Würzburg","[]","Würzburg","true","false","2212.869999995746"
"","html-voicekey-response","12","168465","0.0-4.8-0.8","h6j7mxym6hepf0c","{""user_agent"":""Mozilla/5.0 (Macintosh; Intel Mac OS X 10_14_4) AppleWebKit/537.36 (KHTML, like Gecko) Chrome/74.0.3729.169 Safari/537.36"",""on_chrome"":true,""on_mobile"":false,""language"":""en-US"",""screen_resolution"":[1440,900],""platform"":""MacIntel"",""timezone"":""Europe/Berlin""}","18","1656.5250000001747","","","1558531184369","5","","Aachen","[]","Aachen","true","true","2680.6649999998626"
"","html-voicekey-response","13","172172","0.0-4.9-0.9","h6j7mxym6hepf0c","{""user_agent"":""Mozilla/5.0 (Macintosh; Intel Mac OS X 10_14_4) AppleWebKit/537.36 (KHTML, like Gecko) Chrome/74.0.3729.169 Safari/537.36"",""on_chrome"":true,""on_mobile"":false,""language"":""en-US"",""screen_resolution"":[1440,900],""platform"":""MacIntel"",""timezone"":""Europe/Berlin""}","18","2012.7700000028476","","","1558531187652","6","","Dresden","[]","Dresden","true","true","3104.1949999998906"
"","html-voicekey-response","14","176005","0.0-4.10-0.10","h6j7mxym6hepf0c","{""user_agent"":""Mozilla/5.0 (Macintosh; Intel Mac OS X 10_14_4) AppleWebKit/537.36 (KHTML, like Gecko) Chrome/74.0.3729.169 Safari/537.36"",""on_chrome"":true,""on_mobile"":false,""language"":""en-US"",""screen_resolution"":[1440,900],""platform"":""MacIntel"",""timezone"":""Europe/Berlin""}","18","2373.9599999988336","","","1558531191359","5","","Aachen","[]","Aachen","true","false","3231.114999995043"
"","html-voicekey-response","15","178939","0.0-4.11-0.11","h6j7mxym6hepf0c","{""user_agent"":""Mozilla/5.0 (Macintosh; Intel Mac OS X 10_14_4) AppleWebKit/537.36 (KHTML, like Gecko) Chrome/74.0.3729.169 Safari/537.36"",""on_chrome"":true,""on_mobile"":false,""language"":""en-US"",""screen_resolution"":[1440,900],""platform"":""MacIntel"",""timezone"":""Europe/Berlin""}","18","1239.060000001546","","","1558531195193","6","","Dresden","[]","Dresden","true","false","2331.590000001597"
"","html-voicekey-response","16","182530","0.0-4.12-0.12","h6j7mxym6hepf0c","{""user_agent"":""Mozilla/5.0 (Macintosh; Intel Mac OS X 10_14_4) AppleWebKit/537.36 (KHTML, like Gecko) Chrome/74.0.3729.169 Safari/537.36"",""on_chrome"":true,""on_mobile"":false,""language"":""en-US"",""screen_resolution"":[1440,900],""platform"":""MacIntel"",""timezone"":""Europe/Berlin""}","18","2096.5499999964145","","","1558531198126","7","","Erfurt","[]","Erfurt","true","true","2988.579999997455"
"","html-voicekey-response","17","185213","0.0-4.13-0.13","h6j7mxym6hepf0c","{""user_agent"":""Mozilla/5.0 (Macintosh; Intel Mac OS X 10_14_4) AppleWebKit/537.36 (KHTML, like Gecko) Chrome/74.0.3729.169 Safari/537.36"",""on_chrome"":true,""on_mobile"":false,""language"":""en-US"",""screen_resolution"":[1440,900],""platform"":""MacIntel"",""timezone"":""Europe/Berlin""}","18","1338.2750000035508","","","1558531201717","1","","Magdeburg","[]","Magdeburg","true","false","2080.9750000044005"
"","html-voicekey-response","18","188046","0.0-4.14-0.14","h6j7mxym6hepf0c","{""user_agent"":""Mozilla/5.0 (Macintosh; Intel Mac OS X 10_14_4) AppleWebKit/537.36 (KHTML, like Gecko) Chrome/74.0.3729.169 Safari/537.36"",""on_chrome"":true,""on_mobile"":false,""language"":""en-US"",""screen_resolution"":[1440,900],""platform"":""MacIntel"",""timezone"":""Europe/Berlin""}","18","1305.7750000023866","","","1558531204401","7","","Erfurt","[]","Erfurt","true","false","2230.5150000029244"
"","html-voicekey-response","19","190896","0.0-4.15-0.15","h6j7mxym6hepf0c","{""user_agent"":""Mozilla/5.0 (Macintosh; Intel Mac OS X 10_14_4) AppleWebKit/537.36 (KHTML, like Gecko) Chrome/74.0.3729.169 Safari/537.36"",""on_chrome"":true,""on_mobile"":false,""language"":""en-US"",""screen_resolution"":[1440,900],""platform"":""MacIntel"",""timezone"":""Europe/Berlin""}","18","1472.185000000382","","","1558531207234","2","","Berlin","[]","Berlin","true","false","2247.849999999744"
"","html-voicekey-response","20","194242","0.0-4.16-0.16","h6j7mxym6hepf0c","{""user_agent"":""Mozilla/5.0 (Macintosh; Intel Mac OS X 10_14_4) AppleWebKit/537.36 (KHTML, like Gecko) Chrome/74.0.3729.169 Safari/537.36"",""on_chrome"":true,""on_mobile"":false,""language"":""en-US"",""screen_resolution"":[1440,900],""platform"":""MacIntel"",""timezone"":""Europe/Berlin""}","18","1951.1849999997416","","","1558531210084","8","","Gotha","[]","Gotha","true","true","2743.6449999950128"
"","html-voicekey-response","21","197608","0.0-4.17-0.17","h6j7mxym6hepf0c","{""user_agent"":""Mozilla/5.0 (Macintosh; Intel Mac OS X 10_14_4) AppleWebKit/537.36 (KHTML, like Gecko) Chrome/74.0.3729.169 Safari/537.36"",""on_chrome"":true,""on_mobile"":false,""language"":""en-US"",""screen_resolution"":[1440,900],""platform"":""MacIntel"",""timezone"":""Europe/Berlin""}","18","1738.3500000012923","","","1558531213430","9","","München","[]","München","true","true","2763.5900000022957"
"","html-voicekey-response","22","201192","0.0-4.18-0.18","h6j7mxym6hepf0c","{""user_agent"":""Mozilla/5.0 (Macintosh; Intel Mac OS X 10_14_4) AppleWebKit/537.36 (KHTML, like Gecko) Chrome/74.0.3729.169 Safari/537.36"",""on_chrome"":true,""on_mobile"":false,""language"":""en-US"",""screen_resolution"":[1440,900],""platform"":""MacIntel"",""timezone"":""Europe/Berlin""}","18","2088.689999998524","","","1558531216796","8","","Gotha","[]","Gotha","true","false","2980.539999996836"
"","html-voicekey-response","23","207782","0.0-4.19-0.19","h6j7mxym6hepf0c","{""user_agent"":""Mozilla/5.0 (Macintosh; Intel Mac OS X 10_14_4) AppleWebKit/537.36 (KHTML, like Gecko) Chrome/74.0.3729.169 Safari/537.36"",""on_chrome"":true,""on_mobile"":false,""language"":""en-US"",""screen_resolution"":[1440,900],""platform"":""MacIntel"",""timezone"":""Europe/Berlin""}","18","5379.210000000812","","","1558531220379","9","","München","[]","München","true","false","5987.589999996999"
"","html-voicekey-response","24","228134","0.0-4.20-0.20","h6j7mxym6hepf0c","{""user_agent"":""Mozilla/5.0 (Macintosh; Intel Mac OS X 10_14_4) AppleWebKit/537.36 (KHTML, like Gecko) Chrome/74.0.3729.169 Safari/537.36"",""on_chrome"":true,""on_mobile"":false,""language"":""en-US"",""screen_resolution"":[1440,900],""platform"":""MacIntel"",""timezone"":""Europe/Berlin""}","18","Infinity","","","1558531226968","3","","Ingolstadt","[]","Ingolstadt","true","false","19749.200000005658"
"","html-voicekey-response","25","230870","0.0-4.21-0.21","h6j7mxym6hepf0c","{""user_agent"":""Mozilla/5.0 (Macintosh; Intel Mac OS X 10_14_4) AppleWebKit/537.36 (KHTML, like Gecko) Chrome/74.0.3729.169 Safari/537.36"",""on_chrome"":true,""on_mobile"":false,""language"":""en-US"",""screen_resolution"":[1440,900],""platform"":""MacIntel"",""timezone"":""Europe/Berlin""}","18","1371.4999999954948","","","1558531247322","4","","Würzburg","[]","Würzburg","true","false","2132.369999999355"
"","html-voicekey-response","26","233818","0.0-4.22-0.22","h6j7mxym6hepf0c","{""user_agent"":""Mozilla/5.0 (Macintosh; Intel Mac OS X 10_14_4) AppleWebKit/537.36 (KHTML, like Gecko) Chrome/74.0.3729.169 Safari/537.36"",""on_chrome"":true,""on_mobile"":false,""language"":""en-US"",""screen_resolution"":[1440,900],""platform"":""MacIntel"",""timezone"":""Europe/Berlin""}","18","1569.9350000011968","","","1558531250058","5","","Aachen","[]","Aachen","true","false","2345.85500000685"
"","html-voicekey-response","27","236601","0.0-4.23-0.23","h6j7mxym6hepf0c","{""user_agent"":""Mozilla/5.0 (Macintosh; Intel Mac OS X 10_14_4) AppleWebKit/537.36 (KHTML, like Gecko) Chrome/74.0.3729.169 Safari/537.36"",""on_chrome"":true,""on_mobile"":false,""language"":""en-US"",""screen_resolution"":[1440,900],""platform"":""MacIntel"",""timezone"":""Europe/Berlin""}","18","1237.7250000007102","","","1558531253007","6","","Dresden","[]","Dresden","true","false","2178.9150000040536"
"","html-voicekey-response","28","239286","0.0-4.24-0.24","h6j7mxym6hepf0c","{""user_agent"":""Mozilla/5.0 (Macintosh; Intel Mac OS X 10_14_4) AppleWebKit/537.36 (KHTML, like Gecko) Chrome/74.0.3729.169 Safari/537.36"",""on_chrome"":true,""on_mobile"":false,""language"":""en-US"",""screen_resolution"":[1440,900],""platform"":""MacIntel"",""timezone"":""Europe/Berlin""}","18","1337.934999997588","","","1558531255789","7","","Erfurt","[]","Erfurt","true","false","2080.2649999968708"
"","html-voicekey-response","29","243058","0.0-4.25-0.25","h6j7mxym6hepf0c","{""user_agent"":""Mozilla/5.0 (Macintosh; Intel Mac OS X 10_14_4) AppleWebKit/537.36 (KHTML, like Gecko) Chrome/74.0.3729.169 Safari/537.36"",""on_chrome"":true,""on_mobile"":false,""language"":""en-US"",""screen_resolution"":[1440,900],""platform"":""MacIntel"",""timezone"":""Europe/Berlin""}","18","1978.6250000050409","","","1558531258474","10","","Heidelberg","[]","Heidelberg","true","true","3169.4250000000466"
"","html-voicekey-response","30","245959","0.0-4.26-0.26","h6j7mxym6hepf0c","{""user_agent"":""Mozilla/5.0 (Macintosh; Intel Mac OS X 10_14_4) AppleWebKit/537.36 (KHTML, like Gecko) Chrome/74.0.3729.169 Safari/537.36"",""on_chrome"":true,""on_mobile"":false,""language"":""en-US"",""screen_resolution"":[1440,900],""platform"":""MacIntel"",""timezone"":""Europe/Berlin""}","18","1587.1249999998604","","","1558531262248","8","","Gotha","[]","Gotha","true","false","2296.0500000044703"
"","html-voicekey-response","31","249076","0.0-4.27-0.27","h6j7mxym6hepf0c","{""user_agent"":""Mozilla/5.0 (Macintosh; Intel Mac OS X 10_14_4) AppleWebKit/537.36 (KHTML, like Gecko) Chrome/74.0.3729.169 Safari/537.36"",""on_chrome"":true,""on_mobile"":false,""language"":""en-US"",""screen_resolution"":[1440,900],""platform"":""MacIntel"",""timezone"":""Europe/Berlin""}","18","1421.7999999981025","","","1558531265147","10","","Heidelberg","[]","Heidelberg","true","false","2514.5249999986845"
"","html-voicekey-response","32","251917","0.0-4.28-0.28","h6j7mxym6hepf0c","{""user_agent"":""Mozilla/5.0 (Macintosh; Intel Mac OS X 10_14_4) AppleWebKit/537.36 (KHTML, like Gecko) Chrome/74.0.3729.169 Safari/537.36"",""on_chrome"":true,""on_mobile"":false,""language"":""en-US"",""screen_resolution"":[1440,900],""platform"":""MacIntel"",""timezone"":""Europe/Berlin""}","18","1662.3900000066265","","","1558531268264","9","","München","[]","München","true","false","2237.6600000061444"
"","html-voicekey-response","33","265335","0.0-4.29-0.29","h6j7mxym6hepf0c","{""user_agent"":""Mozilla/5.0 (Macintosh; Intel Mac OS X 10_14_4) AppleWebKit/537.36 (KHTML, like Gecko) Chrome/74.0.3729.169 Safari/537.36"",""on_chrome"":true,""on_mobile"":false,""language"":""en-US"",""screen_resolution"":[1440,900],""platform"":""MacIntel"",""timezone"":""Europe/Berlin""}","18","Infinity","","","1558531271105","3","","Ingolstadt","[]","Ingolstadt","true","false","12813.360000000102"
"","html-voicekey-response","34","268272","0.0-4.30-0.30","h6j7mxym6hepf0c","{""user_agent"":""Mozilla/5.0 (Macintosh; Intel Mac OS X 10_14_4) AppleWebKit/537.36 (KHTML, like Gecko) Chrome/74.0.3729.169 Safari/537.36"",""on_chrome"":true,""on_mobile"":false,""language"":""en-US"",""screen_resolution"":[1440,900],""platform"":""MacIntel"",""timezone"":""Europe/Berlin""}","18","1726.6049999978627","","","1558531284523","11","","Alfeld","[]","Alfeld","true","true","2334.4899999938207"
"","html-voicekey-response","35","270959","0.0-4.31-0.31","h6j7mxym6hepf0c","{""user_agent"":""Mozilla/5.0 (Macintosh; Intel Mac OS X 10_14_4) AppleWebKit/537.36 (KHTML, like Gecko) Chrome/74.0.3729.169 Safari/537.36"",""on_chrome"":true,""on_mobile"":false,""language"":""en-US"",""screen_resolution"":[1440,900],""platform"":""MacIntel"",""timezone"":""Europe/Berlin""}","18","1536.9049999952317","","","1558531287462","12","","Dessau","[]","Dessau","true","true","2079.3249999987893"
"","html-voicekey-response","36","273595","0.0-4.32-0.32","h6j7mxym6hepf0c","{""user_agent"":""Mozilla/5.0 (Macintosh; Intel Mac OS X 10_14_4) AppleWebKit/537.36 (KHTML, like Gecko) Chrome/74.0.3729.169 Safari/537.36"",""on_chrome"":true,""on_mobile"":false,""language"":""en-US"",""screen_resolution"":[1440,900],""platform"":""MacIntel"",""timezone"":""Europe/Berlin""}","18","1207.6699999978068","","","1558531290147","11","","Alfeld","[]","Alfeld","true","false","2032.259999999951"
"","html-voicekey-response","37","276212","0.0-4.33-0.33","h6j7mxym6hepf0c","{""user_agent"":""Mozilla/5.0 (Macintosh; Intel Mac OS X 10_14_4) AppleWebKit/537.36 (KHTML, like Gecko) Chrome/74.0.3729.169 Safari/537.36"",""on_chrome"":true,""on_mobile"":false,""language"":""en-US"",""screen_resolution"":[1440,900],""platform"":""MacIntel"",""timezone"":""Europe/Berlin""}","18","1271.8400000029128","","","1558531292783","12","","Dessau","[]","Dessau","true","false","2013.9199999975972"
"","html-voicekey-response","38","279445","0.0-4.34-0.34","h6j7mxym6hepf0c","{""user_agent"":""Mozilla/5.0 (Macintosh; Intel Mac OS X 10_14_4) AppleWebKit/537.36 (KHTML, like Gecko) Chrome/74.0.3729.169 Safari/537.36"",""on_chrome"":true,""on_mobile"":false,""language"":""en-US"",""screen_resolution"":[1440,900],""platform"":""MacIntel"",""timezone"":""Europe/Berlin""}","18","1870.3299999995857","","","1558531295400","13","","Chemnitz","[]","Chemnitz","true","true","2629.605000001902"
"","html-voicekey-response","39","283047","0.0-4.35-0.35","h6j7mxym6hepf0c","{""user_agent"":""Mozilla/5.0 (Macintosh; Intel Mac OS X 10_14_4) AppleWebKit/537.36 (KHTML, like Gecko) Chrome/74.0.3729.169 Safari/537.36"",""on_chrome"":true,""on_mobile"":false,""language"":""en-US"",""screen_resolution"":[1440,900],""platform"":""MacIntel"",""timezone"":""Europe/Berlin""}","18","2271.7849999988453","","","1558531298633","14","","Potsdam","[]","Potsdam","true","true","2996.9049999999697"
"","html-voicekey-response","40","286403","0.0-4.36-0.36","h6j7mxym6hepf0c","{""user_agent"":""Mozilla/5.0 (Macintosh; Intel Mac OS X 10_14_4) AppleWebKit/537.36 (KHTML, like Gecko) Chrome/74.0.3729.169 Safari/537.36"",""on_chrome"":true,""on_mobile"":false,""language"":""en-US"",""screen_resolution"":[1440,900],""platform"":""MacIntel"",""timezone"":""Europe/Berlin""}","18","1727.2299999984448","","","1558531302235","13","","Chemnitz","[]","Chemnitz","true","false","2752.459999996063"
"","html-voicekey-response","41","291719","0.0-4.37-0.37","h6j7mxym6hepf0c","{""user_agent"":""Mozilla/5.0 (Macintosh; Intel Mac OS X 10_14_4) AppleWebKit/537.36 (KHTML, like Gecko) Chrome/74.0.3729.169 Safari/537.36"",""on_chrome"":true,""on_mobile"":false,""language"":""en-US"",""screen_resolution"":[1440,900],""platform"":""MacIntel"",""timezone"":""Europe/Berlin""}","18","4205.360000001592","","","1558531305590","14","","Potsdam","[]","Potsdam","true","false","4714.099999997416"
"","html-voicekey-response","42","295303","0.0-4.38-0.38","h6j7mxym6hepf0c","{""user_agent"":""Mozilla/5.0 (Macintosh; Intel Mac OS X 10_14_4) AppleWebKit/537.36 (KHTML, like Gecko) Chrome/74.0.3729.169 Safari/537.36"",""on_chrome"":true,""on_mobile"":false,""language"":""en-US"",""screen_resolution"":[1440,900],""platform"":""MacIntel"",""timezone"":""Europe/Berlin""}","18","2088.1699999971083","","","1558531310908","3","","Ingolstadt","[]","Ingolstadt","true","false","2979.4999999940046"
"","html-voicekey-response","43","299131","0.0-4.39-0.39","h6j7mxym6hepf0c","{""user_agent"":""Mozilla/5.0 (Macintosh; Intel Mac OS X 10_14_4) AppleWebKit/537.36 (KHTML, like Gecko) Chrome/74.0.3729.169 Safari/537.36"",""on_chrome"":true,""on_mobile"":false,""language"":""en-US"",""screen_resolution"":[1440,900],""platform"":""MacIntel"",""timezone"":""Europe/Berlin""}","18","2049.3250000016183","","","1558531314491","10","","Heidelberg","[]","Heidelberg","true","false","3225.1500000056694"
"","html-voicekey-response","44","302680","0.0-4.40-0.40","h6j7mxym6hepf0c","{""user_agent"":""Mozilla/5.0 (Macintosh; Intel Mac OS X 10_14_4) AppleWebKit/537.36 (KHTML, like Gecko) Chrome/74.0.3729.169 Safari/537.36"",""on_chrome"":true,""on_mobile"":false,""language"":""en-US"",""screen_resolution"":[1440,900],""platform"":""MacIntel"",""timezone"":""Europe/Berlin""}","18","2120.66499999658","","","1558531318319","15","","Nürnberg","[]","Nürnberg","true","true","2946.2299999941024"
"","html-voicekey-response","45","306249","0.0-4.41-0.41","h6j7mxym6hepf0c","{""user_agent"":""Mozilla/5.0 (Macintosh; Intel Mac OS X 10_14_4) AppleWebKit/537.36 (KHTML, like Gecko) Chrome/74.0.3729.169 Safari/537.36"",""on_chrome"":true,""on_mobile"":false,""language"":""en-US"",""screen_resolution"":[1440,900],""platform"":""MacIntel"",""timezone"":""Europe/Berlin""}","18","2105.194999998121","","","1558531321868","16","","Schwangau","[]","Schwangau","true","true","2963.8249999989057"
"","html-voicekey-response","46","309155","0.0-4.42-0.42","h6j7mxym6hepf0c","{""user_agent"":""Mozilla/5.0 (Macintosh; Intel Mac OS X 10_14_4) AppleWebKit/537.36 (KHTML, like Gecko) Chrome/74.0.3729.169 Safari/537.36"",""on_chrome"":true,""on_mobile"":false,""language"":""en-US"",""screen_resolution"":[1440,900],""platform"":""MacIntel"",""timezone"":""Europe/Berlin""}","18","1524.2699999960955","","","1558531325440","15","","Nürnberg","[]","Nürnberg","true","false","2300.3849999950035"
"","html-voicekey-response","47","312071","0.0-4.43-0.43","h6j7mxym6hepf0c","{""user_agent"":""Mozilla/5.0 (Macintosh; Intel Mac OS X 10_14_4) AppleWebKit/537.36 (KHTML, like Gecko) Chrome/74.0.3729.169 Safari/537.36"",""on_chrome"":true,""on_mobile"":false,""language"":""en-US"",""screen_resolution"":[1440,900],""platform"":""MacIntel"",""timezone"":""Europe/Berlin""}","18","1621.2899999971619","","","1558531328343","16","","Schwangau","[]","Schwangau","true","false","2313.4550000031595"
"","html-voicekey-response","48","315088","0.0-4.44-0.44","h6j7mxym6hepf0c","{""user_agent"":""Mozilla/5.0 (Macintosh; Intel Mac OS X 10_14_4) AppleWebKit/537.36 (KHTML, like Gecko) Chrome/74.0.3729.169 Safari/537.36"",""on_chrome"":true,""on_mobile"":false,""language"":""en-US"",""screen_resolution"":[1440,900],""platform"":""MacIntel"",""timezone"":""Europe/Berlin""}","18","1688.089999997674","","","1558531331260","17","","Leipzig","[]","Leipzig","true","true","2413.5200000018813"
"","html-voicekey-response","49","327696","0.0-4.45-0.45","h6j7mxym6hepf0c","{""user_agent"":""Mozilla/5.0 (Macintosh; Intel Mac OS X 10_14_4) AppleWebKit/537.36 (KHTML, like Gecko) Chrome/74.0.3729.169 Safari/537.36"",""on_chrome"":true,""on_mobile"":false,""language"":""en-US"",""screen_resolution"":[1440,900],""platform"":""MacIntel"",""timezone"":""Europe/Berlin""}","18","8104.069999995618","","","1558531334277","11","","","[]","Alfeld","false","false","8603.259999996226"
"","html-voicekey-response","50","330070","0.0-4.46-0.46","h6j7mxym6hepf0c","{""user_agent"":""Mozilla/5.0 (Macintosh; Intel Mac OS X 10_14_4) AppleWebKit/537.36 (KHTML, like Gecko) Chrome/74.0.3729.169 Safari/537.36"",""on_chrome"":true,""on_mobile"":false,""language"":""en-US"",""screen_resolution"":[1440,900],""platform"":""MacIntel"",""timezone"":""Europe/Berlin""}","18","1134.5700000036509","","","1558531346885","17","","Leipzig","[]","Leipzig","true","false","1769.70500000607"
"","html-voicekey-response","51","332703","0.0-4.47-0.47","h6j7mxym6hepf0c","{""user_agent"":""Mozilla/5.0 (Macintosh; Intel Mac OS X 10_14_4) AppleWebKit/537.36 (KHTML, like Gecko) Chrome/74.0.3729.169 Safari/537.36"",""on_chrome"":true,""on_mobile"":false,""language"":""en-US"",""screen_resolution"":[1440,900],""platform"":""MacIntel"",""timezone"":""Europe/Berlin""}","18","1254.670000003744","","","1558531349258","12","","Dessau","[]","Dessau","true","false","2030.1800000015646"
"","html-voicekey-response","52","335570","0.0-4.48-0.48","h6j7mxym6hepf0c","{""user_agent"":""Mozilla/5.0 (Macintosh; Intel Mac OS X 10_14_4) AppleWebKit/537.36 (KHTML, like Gecko) Chrome/74.0.3729.169 Safari/537.36"",""on_chrome"":true,""on_mobile"":false,""language"":""en-US"",""screen_resolution"":[1440,900],""platform"":""MacIntel"",""timezone"":""Europe/Berlin""}","18","1586.1499999972061","","","1558531351893","13","","Chemnitz","[]","Chemnitz","true","false","2262.1999999973923"
"","html-voicekey-response","53","338870","0.0-4.49-0.49","h6j7mxym6hepf0c","{""user_agent"":""Mozilla/5.0 (Macintosh; Intel Mac OS X 10_14_4) AppleWebKit/537.36 (KHTML, like Gecko) Chrome/74.0.3729.169 Safari/537.36"",""on_chrome"":true,""on_mobile"":false,""language"":""en-US"",""screen_resolution"":[1440,900],""platform"":""MacIntel"",""timezone"":""Europe/Berlin""}","18","2070.784999997914","","","1558531354758","14","","Potsdam","[]","Potsdam","true","false","2696.1599999995087"
"","html-voicekey-response","54","342594","0.0-4.50-0.50","h6j7mxym6hepf0c","{""user_agent"":""Mozilla/5.0 (Macintosh; Intel Mac OS X 10_14_4) AppleWebKit/537.36 (KHTML, like Gecko) Chrome/74.0.3729.169 Safari/537.36"",""on_chrome"":true,""on_mobile"":false,""language"":""en-US"",""screen_resolution"":[1440,900],""platform"":""MacIntel"",""timezone"":""Europe/Berlin""}","18","2413.649999996624","","","1558531358057","18","","Forchheim","[]","Forchheim","true","true","3122.3449999961304"
"","html-voicekey-response","55","345628","0.0-4.51-0.51","h6j7mxym6hepf0c","{""user_agent"":""Mozilla/5.0 (Macintosh; Intel Mac OS X 10_14_4) AppleWebKit/537.36 (KHTML, like Gecko) Chrome/74.0.3729.169 Safari/537.36"",""on_chrome"":true,""on_mobile"":false,""language"":""en-US"",""screen_resolution"":[1440,900],""platform"":""MacIntel"",""timezone"":""Europe/Berlin""}","18","1805.2750000004658","","","1558531361782","19","","Frankfurt","[]","Frankfurt","true","true","2431.3250000050175"
"","html-voicekey-response","56","356329","0.0-4.52-0.52","h6j7mxym6hepf0c","{""user_agent"":""Mozilla/5.0 (Macintosh; Intel Mac OS X 10_14_4) AppleWebKit/537.36 (KHTML, like Gecko) Chrome/74.0.3729.169 Safari/537.36"",""on_chrome"":true,""on_mobile"":false,""language"":""en-US"",""screen_resolution"":[1440,900],""platform"":""MacIntel"",""timezone"":""Europe/Berlin""}","18","Infinity","","","1558531364816","18","","Forchheim","[]","Forchheim","true","false","10096.644999997807"
"","html-voicekey-response","57","359307","0.0-4.53-0.53","h6j7mxym6hepf0c","{""user_agent"":""Mozilla/5.0 (Macintosh; Intel Mac OS X 10_14_4) AppleWebKit/537.36 (KHTML, like Gecko) Chrome/74.0.3729.169 Safari/537.36"",""on_chrome"":true,""on_mobile"":false,""language"":""en-US"",""screen_resolution"":[1440,900],""platform"":""MacIntel"",""timezone"":""Europe/Berlin""}","18","1849.6949999988196","","","1558531375516","19","","Frankfurt","[]","Frankfurt","true","false","2375.769999998738"
"","html-voicekey-response","58","373374","0.0-4.54-0.54","h6j7mxym6hepf0c","{""user_agent"":""Mozilla/5.0 (Macintosh; Intel Mac OS X 10_14_4) AppleWebKit/537.36 (KHTML, like Gecko) Chrome/74.0.3729.169 Safari/537.36"",""on_chrome"":true,""on_mobile"":false,""language"":""en-US"",""screen_resolution"":[1440,900],""platform"":""MacIntel"",""timezone"":""Europe/Berlin""}","18","Infinity","","","1558531378495","3","","Ingolstadt","[]","Ingolstadt","true","false","13463.019999995595"
"","html-voicekey-response","59","377048","0.0-4.55-0.55","h6j7mxym6hepf0c","{""user_agent"":""Mozilla/5.0 (Macintosh; Intel Mac OS X 10_14_4) AppleWebKit/537.36 (KHTML, like Gecko) Chrome/74.0.3729.169 Safari/537.36"",""on_chrome"":true,""on_mobile"":false,""language"":""en-US"",""screen_resolution"":[1440,900],""platform"":""MacIntel"",""timezone"":""Europe/Berlin""}","18","2477.9599999981933","","","1558531392563","15","","Nürnberg","[]","Nürnberg","true","false","3069.7799999979907"
"","html-voicekey-response","60","391499","0.0-4.56-0.56","h6j7mxym6hepf0c","{""user_agent"":""Mozilla/5.0 (Macintosh; Intel Mac OS X 10_14_4) AppleWebKit/537.36 (KHTML, like Gecko) Chrome/74.0.3729.169 Safari/537.36"",""on_chrome"":true,""on_mobile"":false,""language"":""en-US"",""screen_resolution"":[1440,900],""platform"":""MacIntel"",""timezone"":""Europe/Berlin""}","18","8770.40999999902","","","1558531396236","16","","","[]","Schwangau","false","false","10446.755000004487"
"","html-voicekey-response","61","399628","0.0-4.57-0.57","h6j7mxym6hepf0c","{""user_agent"":""Mozilla/5.0 (Macintosh; Intel Mac OS X 10_14_4) AppleWebKit/537.36 (KHTML, like Gecko) Chrome/74.0.3729.169 Safari/537.36"",""on_chrome"":true,""on_mobile"":false,""language"":""en-US"",""screen_resolution"":[1440,900],""platform"":""MacIntel"",""timezone"":""Europe/Berlin""}","18","100","","","1558531410686","11","","","[]","Alfeld","false","false","4126.3250000047265"
"","html-voicekey-response","62","402172","0.0-4.58-0.58","h6j7mxym6hepf0c","{""user_agent"":""Mozilla/5.0 (Macintosh; Intel Mac OS X 10_14_4) AppleWebKit/537.36 (KHTML, like Gecko) Chrome/74.0.3729.169 Safari/537.36"",""on_chrome"":true,""on_mobile"":false,""language"":""en-US"",""screen_resolution"":[1440,900],""platform"":""MacIntel"",""timezone"":""Europe/Berlin""}","18","1272.0700000007405","","","1558531418815","17","","Leipzig","[]","Leipzig","true","false","1942.1149999980116"
"","html-voicekey-response","63","405906","0.0-4.59-0.59","h6j7mxym6hepf0c","{""user_agent"":""Mozilla/5.0 (Macintosh; Intel Mac OS X 10_14_4) AppleWebKit/537.36 (KHTML, like Gecko) Chrome/74.0.3729.169 Safari/537.36"",""on_chrome"":true,""on_mobile"":false,""language"":""en-US"",""screen_resolution"":[1440,900],""platform"":""MacIntel"",""timezone"":""Europe/Berlin""}","18","2205.4599999990664","","","1558531421360","3","","Ingolstadt","[]","Ingolstadt","true","false","3130.6649999969522"
"","html-voicekey-response","64","420156","0.0-4.60-0.60","h6j7mxym6hepf0c","{""user_agent"":""Mozilla/5.0 (Macintosh; Intel Mac OS X 10_14_4) AppleWebKit/537.36 (KHTML, like Gecko) Chrome/74.0.3729.169 Safari/537.36"",""on_chrome"":true,""on_mobile"":false,""language"":""en-US"",""screen_resolution"":[1440,900],""platform"":""MacIntel"",""timezone"":""Europe/Berlin""}","18","9689.229999997979","","","1558531425093","18","","","[]","Forchheim","false","false","10247.52499999886"
"","html-voicekey-response","65","423351","0.0-4.61-0.61","h6j7mxym6hepf0c","{""user_agent"":""Mozilla/5.0 (Macintosh; Intel Mac OS X 10_14_4) AppleWebKit/537.36 (KHTML, like Gecko) Chrome/74.0.3729.169 Safari/537.36"",""on_chrome"":true,""on_mobile"":false,""language"":""en-US"",""screen_resolution"":[1440,900],""platform"":""MacIntel"",""timezone"":""Europe/Berlin""}","18","1366.4200000001351","","","1558531439344","19","","Frankfurt","[]","Frankfurt","true","false","2591.680000004999"
"","html-voicekey-response","66","426519","0.0-4.62-0.62","h6j7mxym6hepf0c","{""user_agent"":""Mozilla/5.0 (Macintosh; Intel Mac OS X 10_14_4) AppleWebKit/537.36 (KHTML, like Gecko) Chrome/74.0.3729.169 Safari/537.36"",""on_chrome"":true,""on_mobile"":false,""language"":""en-US"",""screen_resolution"":[1440,900],""platform"":""MacIntel"",""timezone"":""Europe/Berlin""}","18","1987.9949999975274","","","1558531442539","11","","Alfeld","[]","Alfeld","true","false","2564.3199999976787"
"","html-voicekey-response","67","443242","0.0-4.63-0.63","h6j7mxym6hepf0c","{""user_agent"":""Mozilla/5.0 (Macintosh; Intel Mac OS X 10_14_4) AppleWebKit/537.36 (KHTML, like Gecko) Chrome/74.0.3729.169 Safari/537.36"",""on_chrome"":true,""on_mobile"":false,""language"":""en-US"",""screen_resolution"":[1440,900],""platform"":""MacIntel"",""timezone"":""Europe/Berlin""}","18","12211.07500000092","","","1558531445707","16","","","[]","Schwangau","false","false","12719.505000000936"
"","html-voicekey-response","68","456217","0.0-4.64-0.64","h6j7mxym6hepf0c","{""user_agent"":""Mozilla/5.0 (Macintosh; Intel Mac OS X 10_14_4) AppleWebKit/537.36 (KHTML, like Gecko) Chrome/74.0.3729.169 Safari/537.36"",""on_chrome"":true,""on_mobile"":false,""language"":""en-US"",""screen_resolution"":[1440,900],""platform"":""MacIntel"",""timezone"":""Europe/Berlin""}","18","7962.975000003853","","","1558531462430","18","","","[]","Forchheim","false","false","8970.740000004298"
"","html-voicekey-response","69","458361","0.0-4.65-0.65","h6j7mxym6hepf0c","{""user_agent"":""Mozilla/5.0 (Macintosh; Intel Mac OS X 10_14_4) AppleWebKit/537.36 (KHTML, like Gecko) Chrome/74.0.3729.169 Safari/537.36"",""on_chrome"":true,""on_mobile"":false,""language"":""en-US"",""screen_resolution"":[1440,900],""platform"":""MacIntel"",""timezone"":""Europe/Berlin""}","18","1079.7099999998231","","","1558531475407","2","","Berlin","[]","Berlin","true","false","1538.4000000049127"
"","html-voicekey-response","70","469629","0.0-4.66-0.66","h6j7mxym6hepf0c","{""user_agent"":""Mozilla/5.0 (Macintosh; Intel Mac OS X 10_14_4) AppleWebKit/537.36 (KHTML, like Gecko) Chrome/74.0.3729.169 Safari/537.36"",""on_chrome"":true,""on_mobile"":false,""language"":""en-US"",""screen_resolution"":[1440,900],""platform"":""MacIntel"",""timezone"":""Europe/Berlin""}","18","5554.389999999175","","","1558531477549","16","","","[]","Schwangau","false","false","7263.349999993807"
"","html-voicekey-response","71","473919","0.0-4.67-0.67","h6j7mxym6hepf0c","{""user_agent"":""Mozilla/5.0 (Macintosh; Intel Mac OS X 10_14_4) AppleWebKit/537.36 (KHTML, like Gecko) Chrome/74.0.3729.169 Safari/537.36"",""on_chrome"":true,""on_mobile"":false,""language"":""en-US"",""screen_resolution"":[1440,900],""platform"":""MacIntel"",""timezone"":""Europe/Berlin""}","18","2627.934999998461","","","1558531488817","3","","Ingolstadt","[]","Ingolstadt","true","false","3686.8699999977252"
"","html-voicekey-response","72","477153","0.0-4.68-0.68","h6j7mxym6hepf0c","{""user_agent"":""Mozilla/5.0 (Macintosh; Intel Mac OS X 10_14_4) AppleWebKit/537.36 (KHTML, like Gecko) Chrome/74.0.3729.169 Safari/537.36"",""on_chrome"":true,""on_mobile"":false,""language"":""en-US"",""screen_resolution"":[1440,900],""platform"":""MacIntel"",""timezone"":""Europe/Berlin""}","18","1538.330000004708","","","1558531493107","1","","Magdeburg","[]","Magdeburg","true","false","2630.860000004759"
"","html-voicekey-response","73","493482","0.0-4.69-0.69","h6j7mxym6hepf0c","{""user_agent"":""Mozilla/5.0 (Macintosh; Intel Mac OS X 10_14_4) AppleWebKit/537.36 (KHTML, like Gecko) Chrome/74.0.3729.169 Safari/537.36"",""on_chrome"":true,""on_mobile"":false,""language"":""en-US"",""screen_resolution"":[1440,900],""platform"":""MacIntel"",""timezone"":""Europe/Berlin""}","18","10363.85499999763","","","1558531496342","18","","","[]","Forchheim","false","false","12322.469999999157"
"","html-voicekey-response","74","502235","0.0-4.70-0.70","h6j7mxym6hepf0c","{""user_agent"":""Mozilla/5.0 (Macintosh; Intel Mac OS X 10_14_4) AppleWebKit/537.36 (KHTML, like Gecko) Chrome/74.0.3729.169 Safari/537.36"",""on_chrome"":true,""on_mobile"":false,""language"":""en-US"",""screen_resolution"":[1440,900],""platform"":""MacIntel"",""timezone"":""Europe/Berlin""}","18","3742.4400000034716","","","1558531512670","16","","","[]","Schwangau","false","false","4750.769999998738"
"","html-voicekey-response","75","509676","0.0-4.71-0.71","h6j7mxym6hepf0c","{""user_agent"":""Mozilla/5.0 (Macintosh; Intel Mac OS X 10_14_4) AppleWebKit/537.36 (KHTML, like Gecko) Chrome/74.0.3729.169 Safari/537.36"",""on_chrome"":true,""on_mobile"":false,""language"":""en-US"",""screen_resolution"":[1440,900],""platform"":""MacIntel"",""timezone"":""Europe/Berlin""}","18","Infinity","","","1558531521423","11","","Alfeld","[]","Alfeld","true","false","6837.8799999991315"
"","html-voicekey-response","76","519271","0.0-4.72-0.72","h6j7mxym6hepf0c","{""user_agent"":""Mozilla/5.0 (Macintosh; Intel Mac OS X 10_14_4) AppleWebKit/537.36 (KHTML, like Gecko) Chrome/74.0.3729.169 Safari/537.36"",""on_chrome"":true,""on_mobile"":false,""language"":""en-US"",""screen_resolution"":[1440,900],""platform"":""MacIntel"",""timezone"":""Europe/Berlin""}","18","750.6500000034342","","","1558531528865","18","","","[]","Forchheim","false","false","5591.070000002219"
"","html-voicekey-response","77","522462","0.0-4.73-0.73","h6j7mxym6hepf0c","{""user_agent"":""Mozilla/5.0 (Macintosh; Intel Mac OS X 10_14_4) AppleWebKit/537.36 (KHTML, like Gecko) Chrome/74.0.3729.169 Safari/537.36"",""on_chrome"":true,""on_mobile"":false,""language"":""en-US"",""screen_resolution"":[1440,900],""platform"":""MacIntel"",""timezone"":""Europe/Berlin""}","18","1755.1450000044774","","","1558531538459","3","","Ingolstadt","[]","Ingolstadt","true","false","2588.5400000042864"
"","html-voicekey-response","78","525230","0.0-4.74-0.74","h6j7mxym6hepf0c","{""user_agent"":""Mozilla/5.0 (Macintosh; Intel Mac OS X 10_14_4) AppleWebKit/537.36 (KHTML, like Gecko) Chrome/74.0.3729.169 Safari/537.36"",""on_chrome"":true,""on_mobile"":false,""language"":""en-US"",""screen_resolution"":[1440,900],""platform"":""MacIntel"",""timezone"":""Europe/Berlin""}","18","1654.4349999985193","","","1558531541651","15","","Nürnberg","[]","Nürnberg","true","false","2164.4999999990687"
"","html-voicekey-response","79","534297","0.0-4.75-0.75","h6j7mxym6hepf0c","{""user_agent"":""Mozilla/5.0 (Macintosh; Intel Mac OS X 10_14_4) AppleWebKit/537.36 (KHTML, like Gecko) Chrome/74.0.3729.169 Safari/537.36"",""on_chrome"":true,""on_mobile"":false,""language"":""en-US"",""screen_resolution"":[1440,900],""platform"":""MacIntel"",""timezone"":""Europe/Berlin""}","18","4437.420000003627","","","1558531544419","16","","","[]","Schwangau","false","false","5062.219999999739"
"","html-voicekey-response","80","544554","0.0-4.76-0.76","h6j7mxym6hepf0c","{""user_agent"":""Mozilla/5.0 (Macintosh; Intel Mac OS X 10_14_4) AppleWebKit/537.36 (KHTML, like Gecko) Chrome/74.0.3729.169 Safari/537.36"",""on_chrome"":true,""on_mobile"":false,""language"":""en-US"",""screen_resolution"":[1440,900],""platform"":""MacIntel"",""timezone"":""Europe/Berlin""}","18","4827.230000004265","","","1558531553486","18","","","[]","Forchheim","false","false","6252.65500000387"
"","html-voicekey-response","81","550327","0.0-4.77-0.77","h6j7mxym6hepf0c","{""user_agent"":""Mozilla/5.0 (Macintosh; Intel Mac OS X 10_14_4) AppleWebKit/537.36 (KHTML, like Gecko) Chrome/74.0.3729.169 Safari/537.36"",""on_chrome"":true,""on_mobile"":false,""language"":""en-US"",""screen_resolution"":[1440,900],""platform"":""MacIntel"",""timezone"":""Europe/Berlin""}","18","4245.409999997448","","","1558531563743","11","","Alfeld","[]","Alfeld","true","false","5169.574999999837"
"","html-voicekey-response","82","553129","0.0-4.78-0.78","h6j7mxym6hepf0c","{""user_agent"":""Mozilla/5.0 (Macintosh; Intel Mac OS X 10_14_4) AppleWebKit/537.36 (KHTML, like Gecko) Chrome/74.0.3729.169 Safari/537.36"",""on_chrome"":true,""on_mobile"":false,""language"":""en-US"",""screen_resolution"":[1440,900],""platform"":""MacIntel"",""timezone"":""Europe/Berlin""}","18","1753.629999993695","","","1558531569517","7","","Erfurt","[]","Erfurt","true","false","2195.6849999987753"
"","html-voicekey-response","83","555703","0.0-4.79-0.79","h6j7mxym6hepf0c","{""user_agent"":""Mozilla/5.0 (Macintosh; Intel Mac OS X 10_14_4) AppleWebKit/537.36 (KHTML, like Gecko) Chrome/74.0.3729.169 Safari/537.36"",""on_chrome"":true,""on_mobile"":false,""language"":""en-US"",""screen_resolution"":[1440,900],""platform"":""MacIntel"",""timezone"":""Europe/Berlin""}","18","1360.9200000008336","","","1558531572318","4","","Würzburg","[]","Würzburg","true","false","1969.859999997425"
"","html-voicekey-response","84","564252","0.0-4.80-0.80","h6j7mxym6hepf0c","{""user_agent"":""Mozilla/5.0 (Macintosh; Intel Mac OS X 10_14_4) AppleWebKit/537.36 (KHTML, like Gecko) Chrome/74.0.3729.169 Safari/537.36"",""on_chrome"":true,""on_mobile"":false,""language"":""en-US"",""screen_resolution"":[1440,900],""platform"":""MacIntel"",""timezone"":""Europe/Berlin""}","18","3936.6650000026916","","","1558531574892","5","","","[]","Aachen","false","false","4545.454999999492"
"","html-voicekey-response","85","567130","0.0-4.81-0.81","h6j7mxym6hepf0c","{""user_agent"":""Mozilla/5.0 (Macintosh; Intel Mac OS X 10_14_4) AppleWebKit/537.36 (KHTML, like Gecko) Chrome/74.0.3729.169 Safari/537.36"",""on_chrome"":true,""on_mobile"":false,""language"":""en-US"",""screen_resolution"":[1440,900],""platform"":""MacIntel"",""timezone"":""Europe/Berlin""}","18","1853.8400000050665","","","1558531583442","8","","Gotha","[]","Gotha","true","false","2273.895000005723"
"","html-voicekey-response","86","569397","0.0-4.82-0.82","h6j7mxym6hepf0c","{""user_agent"":""Mozilla/5.0 (Macintosh; Intel Mac OS X 10_14_4) AppleWebKit/537.36 (KHTML, like Gecko) Chrome/74.0.3729.169 Safari/537.36"",""on_chrome"":true,""on_mobile"":false,""language"":""en-US"",""screen_resolution"":[1440,900],""platform"":""MacIntel"",""timezone"":""Europe/Berlin""}","18","1268.9049999988406","","","1558531586321","6","","Dresden","[]","Dresden","true","false","1660.8699999997625"
"","html-voicekey-response","87","579147","0.0-4.83-0.83","h6j7mxym6hepf0c","{""user_agent"":""Mozilla/5.0 (Macintosh; Intel Mac OS X 10_14_4) AppleWebKit/537.36 (KHTML, like Gecko) Chrome/74.0.3729.169 Safari/537.36"",""on_chrome"":true,""on_mobile"":false,""language"":""en-US"",""screen_resolution"":[1440,900],""platform"":""MacIntel"",""timezone"":""Europe/Berlin""}","18","4070.8850000026637","","","1558531588586","18","","","[]","Forchheim","false","false","5745.824999998207"
"","html-voicekey-response","88","581821","0.0-4.84-0.84","h6j7mxym6hepf0c","{""user_agent"":""Mozilla/5.0 (Macintosh; Intel Mac OS X 10_14_4) AppleWebKit/537.36 (KHTML, like Gecko) Chrome/74.0.3729.169 Safari/537.36"",""on_chrome"":true,""on_mobile"":false,""language"":""en-US"",""screen_resolution"":[1440,900],""platform"":""MacIntel"",""timezone"":""Europe/Berlin""}","18","100","","","1558531598337","9","","München","[]","München","true","false","2069.819999996922"
"","html-voicekey-response","89","589638","0.0-4.85-0.85","h6j7mxym6hepf0c","{""user_agent"":""Mozilla/5.0 (Macintosh; Intel Mac OS X 10_14_4) AppleWebKit/537.36 (KHTML, like Gecko) Chrome/74.0.3729.169 Safari/537.36"",""on_chrome"":true,""on_mobile"":false,""language"":""en-US"",""screen_resolution"":[1440,900],""platform"":""MacIntel"",""timezone"":""Europe/Berlin""}","18","Infinity","","","1558531601010","18","","Forchheim","[]","Forchheim","true","false","7212.690000000293"
"","html-voicekey-response","90","597708","0.0-4.86-0.86","h6j7mxym6hepf0c","{""user_agent"":""Mozilla/5.0 (Macintosh; Intel Mac OS X 10_14_4) AppleWebKit/537.36 (KHTML, like Gecko) Chrome/74.0.3729.169 Safari/537.36"",""on_chrome"":true,""on_mobile"":false,""language"":""en-US"",""screen_resolution"":[1440,900],""platform"":""MacIntel"",""timezone"":""Europe/Berlin""}","18","2474.479999998794","","","1558531608827","16","","","[]","Schwangau","false","false","4065.9200000009732"
"","html-voicekey-response","91","608619","0.0-4.87-0.87","h6j7mxym6hepf0c","{""user_agent"":""Mozilla/5.0 (Macintosh; Intel Mac OS X 10_14_4) AppleWebKit/537.36 (KHTML, like Gecko) Chrome/74.0.3729.169 Safari/537.36"",""on_chrome"":true,""on_mobile"":false,""language"":""en-US"",""screen_resolution"":[1440,900],""platform"":""MacIntel"",""timezone"":""Europe/Berlin""}","18","6385.500000005681","","","1558531616897","18","","","[]","Forchheim","false","false","6906.865000004531"
"","html-voicekey-response","92","618719","0.0-4.88-0.88","h6j7mxym6hepf0c","{""user_agent"":""Mozilla/5.0 (Macintosh; Intel Mac OS X 10_14_4) AppleWebKit/537.36 (KHTML, like Gecko) Chrome/74.0.3729.169 Safari/537.36"",""on_chrome"":true,""on_mobile"":false,""language"":""en-US"",""screen_resolution"":[1440,900],""platform"":""MacIntel"",""timezone"":""Europe/Berlin""}","18","3304.4649999955204","","","1558531627809","11","","","[]","Alfeld","false","false","6095.029999996768"
"","html-voicekey-response","93","629194","0.0-4.89-0.89","h6j7mxym6hepf0c","{""user_agent"":""Mozilla/5.0 (Macintosh; Intel Mac OS X 10_14_4) AppleWebKit/537.36 (KHTML, like Gecko) Chrome/74.0.3729.169 Safari/537.36"",""on_chrome"":true,""on_mobile"":false,""language"":""en-US"",""screen_resolution"":[1440,900],""platform"":""MacIntel"",""timezone"":""Europe/Berlin""}","18","5129.060000000964","","","1558531637908","18","","","[]","Forchheim","false","false","6470.685000000172"
"","html-voicekey-response","94","631903","0.0-4.90-0.90","h6j7mxym6hepf0c","{""user_agent"":""Mozilla/5.0 (Macintosh; Intel Mac OS X 10_14_4) AppleWebKit/537.36 (KHTML, like Gecko) Chrome/74.0.3729.169 Safari/537.36"",""on_chrome"":true,""on_mobile"":false,""language"":""en-US"",""screen_resolution"":[1440,900],""platform"":""MacIntel"",""timezone"":""Europe/Berlin""}","18","1628.205000002496","","","1558531648384","16","","Schwangau","[]","Schwangau","true","false","2104.724999997299"
"","html-voicekey-response","95","643686","0.0-4.91-0.91","h6j7mxym6hepf0c","{""user_agent"":""Mozilla/5.0 (Macintosh; Intel Mac OS X 10_14_4) AppleWebKit/537.36 (KHTML, like Gecko) Chrome/74.0.3729.169 Safari/537.36"",""on_chrome"":true,""on_mobile"":false,""language"":""en-US"",""screen_resolution"":[1440,900],""platform"":""MacIntel"",""timezone"":""Europe/Berlin""}","18","2501.9999999948545","","","1558531651093","18","","","[]","Forchheim","false","false","7777.754999995581"
"","html-voicekey-response","96","651779","0.0-4.92-0.92","h6j7mxym6hepf0c","{""user_agent"":""Mozilla/5.0 (Macintosh; Intel Mac OS X 10_14_4) AppleWebKit/537.36 (KHTML, like Gecko) Chrome/74.0.3729.169 Safari/537.36"",""on_chrome"":true,""on_mobile"":false,""language"":""en-US"",""screen_resolution"":[1440,900],""platform"":""MacIntel"",""timezone"":""Europe/Berlin""}","18","Infinity","","","1558531662875","11","","Alfeld","[]","Alfeld","true","false","7488.2599999983795"
"","html-voicekey-response","97","656803","0.0-4.93-0.93","h6j7mxym6hepf0c","{""user_agent"":""Mozilla/5.0 (Macintosh; Intel Mac OS X 10_14_4) AppleWebKit/537.36 (KHTML, like Gecko) Chrome/74.0.3729.169 Safari/537.36"",""on_chrome"":true,""on_mobile"":false,""language"":""en-US"",""screen_resolution"":[1440,900],""platform"":""MacIntel"",""timezone"":""Europe/Berlin""}","18","Infinity","","","1558531670969","18","","Forchheim","[]","Forchheim","true","false","4419.3650000016205"
"","html-voicekey-response","98","659636","0.0-4.94-0.94","h6j7mxym6hepf0c","{""user_agent"":""Mozilla/5.0 (Macintosh; Intel Mac OS X 10_14_4) AppleWebKit/537.36 (KHTML, like Gecko) Chrome/74.0.3729.169 Safari/537.36"",""on_chrome"":true,""on_mobile"":false,""language"":""en-US"",""screen_resolution"":[1440,900],""platform"":""MacIntel"",""timezone"":""Europe/Berlin""}","18","1685.6900000001538","","","1558531675994","14","","Potsdam","[]","Potsdam","true","false","2228.0350000000326"
"","html-voicekey-response","99","666220","0.0-4.95-0.95","h6j7mxym6hepf0c","{""user_agent"":""Mozilla/5.0 (Macintosh; Intel Mac OS X 10_14_4) AppleWebKit/537.36 (KHTML, like Gecko) Chrome/74.0.3729.169 Safari/537.36"",""on_chrome"":true,""on_mobile"":false,""language"":""en-US"",""screen_resolution"":[1440,900],""platform"":""MacIntel"",""timezone"":""Europe/Berlin""}","18","5401.92999999444","","","1558531678826","18","","Forchheim","[]","Forchheim","true","false","5978.064999995753"
"","html-voicekey-response","100","680465","0.0-4.96-0.96","h6j7mxym6hepf0c","{""user_agent"":""Mozilla/5.0 (Macintosh; Intel Mac OS X 10_14_4) AppleWebKit/537.36 (KHTML, like Gecko) Chrome/74.0.3729.169 Safari/537.36"",""on_chrome"":true,""on_mobile"":false,""language"":""en-US"",""screen_resolution"":[1440,900],""platform"":""MacIntel"",""timezone"":""Europe/Berlin""}","18","4813.734999997867","","","1558531685411","11","","","[]","Alfeld","false","false","10238.955000000773"
"","html-voicekey-response","101","684556","0.0-4.97-0.97","h6j7mxym6hepf0c","{""user_agent"":""Mozilla/5.0 (Macintosh; Intel Mac OS X 10_14_4) AppleWebKit/537.36 (KHTML, like Gecko) Chrome/74.0.3729.169 Safari/537.36"",""on_chrome"":true,""on_mobile"":false,""language"":""en-US"",""screen_resolution"":[1440,900],""platform"":""MacIntel"",""timezone"":""Europe/Berlin""}","18","2693.775000001397","","","1558531699655","18","","Forchheim","[]","Forchheim","true","false","3485.890000003623"
"","html-voicekey-response","102","687755","0.0-4.98-0.98","h6j7mxym6hepf0c","{""user_agent"":""Mozilla/5.0 (Macintosh; Intel Mac OS X 10_14_4) AppleWebKit/537.36 (KHTML, like Gecko) Chrome/74.0.3729.169 Safari/537.36"",""on_chrome"":true,""on_mobile"":false,""language"":""en-US"",""screen_resolution"":[1440,900],""platform"":""MacIntel"",""timezone"":""Europe/Berlin""}","18","1985.235000001709","","","1558531703747","16","","Schwangau","[]","Schwangau","true","false","2593.2800000009593"
"","html-voicekey-response","103","690947","0.0-4.99-0.99","h6j7mxym6hepf0c","{""user_agent"":""Mozilla/5.0 (Macintosh; Intel Mac OS X 10_14_4) AppleWebKit/537.36 (KHTML, like Gecko) Chrome/74.0.3729.169 Safari/537.36"",""on_chrome"":true,""on_mobile"":false,""language"":""en-US"",""screen_resolution"":[1440,900],""platform"":""MacIntel"",""timezone"":""Europe/Berlin""}","18","2026.85999999973","","","1558531706946","18","","Forchheim","[]","Forchheim","true","false","2585.444999996922"
"","html-voicekey-response","104","694247","0.0-4.100-0.100","h6j7mxym6hepf0c","{""user_agent"":""Mozilla/5.0 (Macintosh; Intel Mac OS X 10_14_4) AppleWebKit/537.36 (KHTML, like Gecko) Chrome/74.0.3729.169 Safari/537.36"",""on_chrome"":true,""on_mobile"":false,""language"":""en-US"",""screen_resolution"":[1440,900],""platform"":""MacIntel"",""timezone"":""Europe/Berlin""}","18","2268.869999994384","","","1558531710137","10","","Heidelberg","[]","Heidelberg","true","false","2694.3449999962468"
"","html-voicekey-response","105","696947","0.0-4.101-0.101","h6j7mxym6hepf0c","{""user_agent"":""Mozilla/5.0 (Macintosh; Intel Mac OS X 10_14_4) AppleWebKit/537.36 (KHTML, like Gecko) Chrome/74.0.3729.169 Safari/537.36"",""on_chrome"":true,""on_mobile"":false,""language"":""en-US"",""screen_resolution"":[1440,900],""platform"":""MacIntel"",""timezone"":""Europe/Berlin""}","18","1551.9800000055461","","","1558531713437","18","","Forchheim","[]","Forchheim","true","false","2094.7700000033947"
"","html-voicekey-response","106","700153","0.0-4.102-0.102","h6j7mxym6hepf0c","{""user_agent"":""Mozilla/5.0 (Macintosh; Intel Mac OS X 10_14_4) AppleWebKit/537.36 (KHTML, like Gecko) Chrome/74.0.3729.169 Safari/537.36"",""on_chrome"":true,""on_mobile"":false,""language"":""en-US"",""screen_resolution"":[1440,900],""platform"":""MacIntel"",""timezone"":""Europe/Berlin""}","18","2035.7299999976299","","","1558531716138","11","","Alfeld","[]","Alfeld","true","false","2599.614999999176"
"","html-voicekey-response","107","703436","0.0-4.103-0.103","h6j7mxym6hepf0c","{""user_agent"":""Mozilla/5.0 (Macintosh; Intel Mac OS X 10_14_4) AppleWebKit/537.36 (KHTML, like Gecko) Chrome/74.0.3729.169 Safari/537.36"",""on_chrome"":true,""on_mobile"":false,""language"":""en-US"",""screen_resolution"":[1440,900],""platform"":""MacIntel"",""timezone"":""Europe/Berlin""}","18","2135.455000005057","","","1558531719344","5","","Aachen","[]","Aachen","true","false","2676.9300000015646"
"","html-voicekey-response","108","706253","0.0-4.104-0.104","h6j7mxym6hepf0c","{""user_agent"":""Mozilla/5.0 (Macintosh; Intel Mac OS X 10_14_4) AppleWebKit/537.36 (KHTML, like Gecko) Chrome/74.0.3729.169 Safari/537.36"",""on_chrome"":true,""on_mobile"":false,""language"":""en-US"",""screen_resolution"":[1440,900],""platform"":""MacIntel"",""timezone"":""Europe/Berlin""}","18","1702.1200000033482","","","1558531722627","12","","Dessau","[]","Dessau","true","false","2211.625000003609"
"","html-voicekey-response","109","709404","0.0-4.105-0.105","h6j7mxym6hepf0c","{""user_agent"":""Mozilla/5.0 (Macintosh; Intel Mac OS X 10_14_4) AppleWebKit/537.36 (KHTML, like Gecko) Chrome/74.0.3729.169 Safari/537.36"",""on_chrome"":true,""on_mobile"":false,""language"":""en-US"",""screen_resolution"":[1440,900],""platform"":""MacIntel"",""timezone"":""Europe/Berlin""}","18","2033.9800000019372","","","1558531725445","13","","Chemnitz","[]","Chemnitz","true","false","2542.6950000037905"
"","html-voicekey-response","110","713712","0.0-4.106-0.106","h6j7mxym6hepf0c","{""user_agent"":""Mozilla/5.0 (Macintosh; Intel Mac OS X 10_14_4) AppleWebKit/537.36 (KHTML, like Gecko) Chrome/74.0.3729.169 Safari/537.36"",""on_chrome"":true,""on_mobile"":false,""language"":""en-US"",""screen_resolution"":[1440,900],""platform"":""MacIntel"",""timezone"":""Europe/Berlin""}","18","3059.115000005206","","","1558531728596","18","","Forchheim","[]","Forchheim","true","false","3701.355000004638"
"","html-voicekey-response","111","718579","0.0-4.107-0.107","h6j7mxym6hepf0c","{""user_agent"":""Mozilla/5.0 (Macintosh; Intel Mac OS X 10_14_4) AppleWebKit/537.36 (KHTML, like Gecko) Chrome/74.0.3729.169 Safari/537.36"",""on_chrome"":true,""on_mobile"":false,""language"":""en-US"",""screen_resolution"":[1440,900],""platform"":""MacIntel"",""timezone"":""Europe/Berlin""}","18","3267.569999998063","","","1558531732903","3","","Ingolstadt","[]","Ingolstadt","true","false","4260.694999997271"
"","html-voicekey-response","112","721450","0.0-4.108-0.108","h6j7mxym6hepf0c","{""user_agent"":""Mozilla/5.0 (Macintosh; Intel Mac OS X 10_14_4) AppleWebKit/537.36 (KHTML, like Gecko) Chrome/74.0.3729.169 Safari/537.36"",""on_chrome"":true,""on_mobile"":false,""language"":""en-US"",""screen_resolution"":[1440,900],""platform"":""MacIntel"",""timezone"":""Europe/Berlin""}","18","1900.5899999991293","","","1558531737771","16","","Schwangau","[]","Schwangau","true","false","2264.73999999871"
"","html-voicekey-response","113","730766","0.0-4.109-0.109","h6j7mxym6hepf0c","{""user_agent"":""Mozilla/5.0 (Macintosh; Intel Mac OS X 10_14_4) AppleWebKit/537.36 (KHTML, like Gecko) Chrome/74.0.3729.169 Safari/537.36"",""on_chrome"":true,""on_mobile"":false,""language"":""en-US"",""screen_resolution"":[1440,900],""platform"":""MacIntel"",""timezone"":""Europe/Berlin""}","18","3550.030000000121","","","1558531740642","18","","","[]","Forchheim","false","false","5308.424999995623"
"","html-voicekey-response","114","733412","0.0-4.110-0.110","h6j7mxym6hepf0c","{""user_agent"":""Mozilla/5.0 (Macintosh; Intel Mac OS X 10_14_4) AppleWebKit/537.36 (KHTML, like Gecko) Chrome/74.0.3729.169 Safari/537.36"",""on_chrome"":true,""on_mobile"":false,""language"":""en-US"",""screen_resolution"":[1440,900],""platform"":""MacIntel"",""timezone"":""Europe/Berlin""}","18","1217.6049999997254","","","1558531749958","11","","Alfeld","[]","Alfeld","true","false","2038.2900000041118"
"","html-voicekey-response","115","738461","0.0-4.111-0.111","h6j7mxym6hepf0c","{""user_agent"":""Mozilla/5.0 (Macintosh; Intel Mac OS X 10_14_4) AppleWebKit/537.36 (KHTML, like Gecko) Chrome/74.0.3729.169 Safari/537.36"",""on_chrome"":true,""on_mobile"":false,""language"":""en-US"",""screen_resolution"":[1440,900],""platform"":""MacIntel"",""timezone"":""Europe/Berlin""}","18","3967.174999999674","","","1558531752604","18","","Forchheim","[]","Forchheim","true","false","4442.184999999823"
"","html-voicekey-response","116","741111","0.0-4.112-0.112","h6j7mxym6hepf0c","{""user_agent"":""Mozilla/5.0 (Macintosh; Intel Mac OS X 10_14_4) AppleWebKit/537.36 (KHTML, like Gecko) Chrome/74.0.3729.169 Safari/537.36"",""on_chrome"":true,""on_mobile"":false,""language"":""en-US"",""screen_resolution"":[1440,900],""platform"":""MacIntel"",""timezone"":""Europe/Berlin""}","18","1784.1149999965915","","","1558531757654","20","","Hamburg ","[]","Hamburg ","true","true","2042.684999993071"
"","html-voicekey-response","117","744433","0.0-4.113-0.113","h6j7mxym6hepf0c","{""user_agent"":""Mozilla/5.0 (Macintosh; Intel Mac OS X 10_14_4) AppleWebKit/537.36 (KHTML, like Gecko) Chrome/74.0.3729.169 Safari/537.36"",""on_chrome"":true,""on_mobile"":false,""language"":""en-US"",""screen_resolution"":[1440,900],""platform"":""MacIntel"",""timezone"":""Europe/Berlin""}","18","800.8750000024214","","","1558531760304","18","","Forchheim","[]","Forchheim","true","false","2714.0199999994365"
"","html-voicekey-response","118","747134","0.0-4.114-0.114","h6j7mxym6hepf0c","{""user_agent"":""Mozilla/5.0 (Macintosh; Intel Mac OS X 10_14_4) AppleWebKit/537.36 (KHTML, like Gecko) Chrome/74.0.3729.169 Safari/537.36"",""on_chrome"":true,""on_mobile"":false,""language"":""en-US"",""screen_resolution"":[1440,900],""platform"":""MacIntel"",""timezone"":""Europe/Berlin""}","18","1401.560000000149","","","1558531763625","20","","Hamburg ","[]","Hamburg ","true","false","2093.9700000018347"
"","html-voicekey-response","119","750100","0.0-4.115-0.115","h6j7mxym6hepf0c","{""user_agent"":""Mozilla/5.0 (Macintosh; Intel Mac OS X 10_14_4) AppleWebKit/537.36 (KHTML, like Gecko) Chrome/74.0.3729.169 Safari/537.36"",""on_chrome"":true,""on_mobile"":false,""language"":""en-US"",""screen_resolution"":[1440,900],""platform"":""MacIntel"",""timezone"":""Europe/Berlin""}","18","1600.42499999851","","","1558531766326","18","","Forchheim","[]","Forchheim","true","false","2359.210000002291"
"","html-voicekey-response","120","753300","0.0-4.116-0.116","h6j7mxym6hepf0c","{""user_agent"":""Mozilla/5.0 (Macintosh; Intel Mac OS X 10_14_4) AppleWebKit/537.36 (KHTML, like Gecko) Chrome/74.0.3729.169 Safari/537.36"",""on_chrome"":true,""on_mobile"":false,""language"":""en-US"",""screen_resolution"":[1440,900],""platform"":""MacIntel"",""timezone"":""Europe/Berlin""}","18","1901.0949999954087","","","1558531769293","3","","Ingolstadt","[]","Ingolstadt","true","false","2592.769999995595"
"","html-voicekey-response","121","755942","0.0-4.117-0.117","h6j7mxym6hepf0c","{""user_agent"":""Mozilla/5.0 (Macintosh; Intel Mac OS X 10_14_4) AppleWebKit/537.36 (KHTML, like Gecko) Chrome/74.0.3729.169 Safari/537.36"",""on_chrome"":true,""on_mobile"":false,""language"":""en-US"",""screen_resolution"":[1440,900],""platform"":""MacIntel"",""timezone"":""Europe/Berlin""}","18","1524.7850000030362","","","1558531772494","18","","Forchheim","[]","Forchheim","true","false","2033.7599999983795"
"","html-voicekey-response","122","758341","0.0-4.118-0.118","h6j7mxym6hepf0c","{""user_agent"":""Mozilla/5.0 (Macintosh; Intel Mac OS X 10_14_4) AppleWebKit/537.36 (KHTML, like Gecko) Chrome/74.0.3729.169 Safari/537.36"",""on_chrome"":true,""on_mobile"":false,""language"":""en-US"",""screen_resolution"":[1440,900],""platform"":""MacIntel"",""timezone"":""Europe/Berlin""}","18","1182.7350000038045","","","1558531775135","17","","Leipzig","[]","Leipzig","true","false","1790.9300000028452"
"","html-voicekey-response","123","760741","0.0-4.119-0.119","h6j7mxym6hepf0c","{""user_agent"":""Mozilla/5.0 (Macintosh; Intel Mac OS X 10_14_4) AppleWebKit/537.36 (KHTML, like Gecko) Chrome/74.0.3729.169 Safari/537.36"",""on_chrome"":true,""on_mobile"":false,""language"":""en-US"",""screen_resolution"":[1440,900],""platform"":""MacIntel"",""timezone"":""Europe/Berlin""}","18","1266.4249999960653","","","1558531777535","19","","Frankfurt","[]","Frankfurt","true","false","1791.689999998198"
"","html-voicekey-response","124","764608","0.0-4.120-0.120","h6j7mxym6hepf0c","{""user_agent"":""Mozilla/5.0 (Macintosh; Intel Mac OS X 10_14_4) AppleWebKit/537.36 (KHTML, like Gecko) Chrome/74.0.3729.169 Safari/537.36"",""on_chrome"":true,""on_mobile"":false,""language"":""en-US"",""screen_resolution"":[1440,900],""platform"":""MacIntel"",""timezone"":""Europe/Berlin""}","18","2500.9650000008755","","","1558531779933","21","","Konstanz","[]","Konstanz","true","true","3259.424999996554"
"","html-voicekey-response","125","767517","0.0-4.121-0.121","h6j7mxym6hepf0c","{""user_agent"":""Mozilla/5.0 (Macintosh; Intel Mac OS X 10_14_4) AppleWebKit/537.36 (KHTML, like Gecko) Chrome/74.0.3729.169 Safari/537.36"",""on_chrome"":true,""on_mobile"":false,""language"":""en-US"",""screen_resolution"":[1440,900],""platform"":""MacIntel"",""timezone"":""Europe/Berlin""}","18","1792.8399999963353","","","1558531783800","18","","Forchheim","[]","Forchheim","true","false","2301.6999999963446"
"","html-voicekey-response","126","770832","0.0-4.122-0.122","h6j7mxym6hepf0c","{""user_agent"":""Mozilla/5.0 (Macintosh; Intel Mac OS X 10_14_4) AppleWebKit/537.36 (KHTML, like Gecko) Chrome/74.0.3729.169 Safari/537.36"",""on_chrome"":true,""on_mobile"":false,""language"":""en-US"",""screen_resolution"":[1440,900],""platform"":""MacIntel"",""timezone"":""Europe/Berlin""}","18","2032.3450000013459","","","1558531786710","21","","Konstanz","[]","Konstanz","true","false","2707.15999999817"
"","html-voicekey-response","127","778300","0.0-4.123-0.123","h6j7mxym6hepf0c","{""user_agent"":""Mozilla/5.0 (Macintosh; Intel Mac OS X 10_14_4) AppleWebKit/537.36 (KHTML, like Gecko) Chrome/74.0.3729.169 Safari/537.36"",""on_chrome"":true,""on_mobile"":false,""language"":""en-US"",""screen_resolution"":[1440,900],""platform"":""MacIntel"",""timezone"":""Europe/Berlin""}","18","6299.270000004884","","","1558531790026","11","","Alfeld","[]","Alfeld","true","false","6858.420000004116"
"","html-voicekey-response","128","781361","0.0-4.124-0.124","h6j7mxym6hepf0c","{""user_agent"":""Mozilla/5.0 (Macintosh; Intel Mac OS X 10_14_4) AppleWebKit/537.36 (KHTML, like Gecko) Chrome/74.0.3729.169 Safari/537.36"",""on_chrome"":true,""on_mobile"":false,""language"":""en-US"",""screen_resolution"":[1440,900],""platform"":""MacIntel"",""timezone"":""Europe/Berlin""}","18","1811.8150000025985","","","1558531797492","22","","Bamberg","[]","Bamberg","true","true","2453.9500000027474"
"","html-voicekey-response","129","784211","0.0-4.125-0.125","h6j7mxym6hepf0c","{""user_agent"":""Mozilla/5.0 (Macintosh; Intel Mac OS X 10_14_4) AppleWebKit/537.36 (KHTML, like Gecko) Chrome/74.0.3729.169 Safari/537.36"",""on_chrome"":true,""on_mobile"":false,""language"":""en-US"",""screen_resolution"":[1440,900],""platform"":""MacIntel"",""timezone"":""Europe/Berlin""}","18","1717.31999999783","","","1558531800554","11","","Alfeld","[]","Alfeld","true","false","2242.5900000017136"
"","html-voicekey-response","130","787578","0.0-4.126-0.126","h6j7mxym6hepf0c","{""user_agent"":""Mozilla/5.0 (Macintosh; Intel Mac OS X 10_14_4) AppleWebKit/537.36 (KHTML, like Gecko) Chrome/74.0.3729.169 Safari/537.36"",""on_chrome"":true,""on_mobile"":false,""language"":""en-US"",""screen_resolution"":[1440,900],""platform"":""MacIntel"",""timezone"":""Europe/Berlin""}","18","2083.175000001304","","","1558531803405","22","","Bamberg","[]","Bamberg","true","false","2758.284999996191"
"","html-voicekey-response","131","791151","0.0-4.127-0.127","h6j7mxym6hepf0c","{""user_agent"":""Mozilla/5.0 (Macintosh; Intel Mac OS X 10_14_4) AppleWebKit/537.36 (KHTML, like Gecko) Chrome/74.0.3729.169 Safari/537.36"",""on_chrome"":true,""on_mobile"":false,""language"":""en-US"",""screen_resolution"":[1440,900],""platform"":""MacIntel"",""timezone"":""Europe/Berlin""}","18","1316.769999999297","","","1558531806771","18","","Forchheim","[]","Forchheim","true","false","2965.8649999982445"
"","html-voicekey-response","132","793968","0.0-4.128-0.128","h6j7mxym6hepf0c","{""user_agent"":""Mozilla/5.0 (Macintosh; Intel Mac OS X 10_14_4) AppleWebKit/537.36 (KHTML, like Gecko) Chrome/74.0.3729.169 Safari/537.36"",""on_chrome"":true,""on_mobile"":false,""language"":""en-US"",""screen_resolution"":[1440,900],""platform"":""MacIntel"",""timezone"":""Europe/Berlin""}","18","1684.1000000003028","","","1558531810344","20","","Hamburg ","[]","Hamburg ","true","false","2208.630000000936"
"","html-voicekey-response","133","797168","0.0-4.129-0.129","h6j7mxym6hepf0c","{""user_agent"":""Mozilla/5.0 (Macintosh; Intel Mac OS X 10_14_4) AppleWebKit/537.36 (KHTML, like Gecko) Chrome/74.0.3729.169 Safari/537.36"",""on_chrome"":true,""on_mobile"":false,""language"":""en-US"",""screen_resolution"":[1440,900],""platform"":""MacIntel"",""timezone"":""Europe/Berlin""}","18","1783.4799999998418","","","1558531813161","23","","Stuttgart","[]","Stuttgart","true","true","2591.915000004461"
"","html-voicekey-response","134","799837","0.0-4.130-0.130","h6j7mxym6hepf0c","{""user_agent"":""Mozilla/5.0 (Macintosh; Intel Mac OS X 10_14_4) AppleWebKit/537.36 (KHTML, like Gecko) Chrome/74.0.3729.169 Safari/537.36"",""on_chrome"":true,""on_mobile"":false,""language"":""en-US"",""screen_resolution"":[1440,900],""platform"":""MacIntel"",""timezone"":""Europe/Berlin""}","18","1533.7000000016765","","","1558531816361","24","","Köln","[]","Köln","true","true","2059.120000005467"
"","html-voicekey-response","135","802809","0.0-4.131-0.131","h6j7mxym6hepf0c","{""user_agent"":""Mozilla/5.0 (Macintosh; Intel Mac OS X 10_14_4) AppleWebKit/537.36 (KHTML, like Gecko) Chrome/74.0.3729.169 Safari/537.36"",""on_chrome"":true,""on_mobile"":false,""language"":""en-US"",""screen_resolution"":[1440,900],""platform"":""MacIntel"",""timezone"":""Europe/Berlin""}","18","1753.6600000037347","","","1558531819031","23","","Stuttgart","[]","Stuttgart","true","false","2363.1400000012945"
"","html-voicekey-response","136","805626","0.0-4.132-0.132","h6j7mxym6hepf0c","{""user_agent"":""Mozilla/5.0 (Macintosh; Intel Mac OS X 10_14_4) AppleWebKit/537.36 (KHTML, like Gecko) Chrome/74.0.3729.169 Safari/537.36"",""on_chrome"":true,""on_mobile"":false,""language"":""en-US"",""screen_resolution"":[1440,900],""platform"":""MacIntel"",""timezone"":""Europe/Berlin""}","18","1582.7599999991712","","","1558531822002","24","","Köln","[]","Köln","true","false","2208.249999996042"
"","html-voicekey-response","137","809425","0.0-4.133-0.133","h6j7mxym6hepf0c","{""user_agent"":""Mozilla/5.0 (Macintosh; Intel Mac OS X 10_14_4) AppleWebKit/537.36 (KHTML, like Gecko) Chrome/74.0.3729.169 Safari/537.36"",""on_chrome"":true,""on_mobile"":false,""language"":""en-US"",""screen_resolution"":[1440,900],""platform"":""MacIntel"",""timezone"":""Europe/Berlin""}","18","2249.4000000023284","","","1558531824819","25","","Osnabrück","[]","Osnabrück","true","true","3191.695000001462"
"","html-voicekey-response","138","812389","0.0-4.134-0.134","h6j7mxym6hepf0c","{""user_agent"":""Mozilla/5.0 (Macintosh; Intel Mac OS X 10_14_4) AppleWebKit/537.36 (KHTML, like Gecko) Chrome/74.0.3729.169 Safari/537.36"",""on_chrome"":true,""on_mobile"":false,""language"":""en-US"",""screen_resolution"":[1440,900],""platform"":""MacIntel"",""timezone"":""Europe/Berlin""}","18","1817.1499999969733","","","1558531828618","26","","Freiburg","[]","Freiburg","true","true","2354.929999994114"
"","html-voicekey-response","139","815488","0.0-4.135-0.135","h6j7mxym6hepf0c","{""user_agent"":""Mozilla/5.0 (Macintosh; Intel Mac OS X 10_14_4) AppleWebKit/537.36 (KHTML, like Gecko) Chrome/74.0.3729.169 Safari/537.36"",""on_chrome"":true,""on_mobile"":false,""language"":""en-US"",""screen_resolution"":[1440,900],""platform"":""MacIntel"",""timezone"":""Europe/Berlin""}","18","1897.3700000004378","","","1558531831583","25","","Osnabrück","[]","Osnabrück","true","false","2489.480000003823"
"","html-voicekey-response","140","821855","0.0-4.136-0.136","h6j7mxym6hepf0c","{""user_agent"":""Mozilla/5.0 (Macintosh; Intel Mac OS X 10_14_4) AppleWebKit/537.36 (KHTML, like Gecko) Chrome/74.0.3729.169 Safari/537.36"",""on_chrome"":true,""on_mobile"":false,""language"":""en-US"",""screen_resolution"":[1440,900],""platform"":""MacIntel"",""timezone"":""Europe/Berlin""}","18","5232.26500000034","","","1558531834681","26","","Freiburg","[]","Freiburg","true","false","5757.769999996526"
"","html-voicekey-response","141","825714","0.0-4.137-0.137","h6j7mxym6hepf0c","{""user_agent"":""Mozilla/5.0 (Macintosh; Intel Mac OS X 10_14_4) AppleWebKit/537.36 (KHTML, like Gecko) Chrome/74.0.3729.169 Safari/537.36"",""on_chrome"":true,""on_mobile"":false,""language"":""en-US"",""screen_resolution"":[1440,900],""platform"":""MacIntel"",""timezone"":""Europe/Berlin""}","18","2142.529999998957","","","1558531841048","21","","Konstanz","[]","Konstanz","true","false","3250.829999997164"
"","html-voicekey-response","142","828730","0.0-4.138-0.138","h6j7mxym6hepf0c","{""user_agent"":""Mozilla/5.0 (Macintosh; Intel Mac OS X 10_14_4) AppleWebKit/537.36 (KHTML, like Gecko) Chrome/74.0.3729.169 Safari/537.36"",""on_chrome"":true,""on_mobile"":false,""language"":""en-US"",""screen_resolution"":[1440,900],""platform"":""MacIntel"",""timezone"":""Europe/Berlin""}","18","1916.8000000006055","","","1558531844907","18","","Forchheim","[]","Forchheim","true","false","2408.589999999036"
"","html-voicekey-response","143","841216","0.0-4.139-0.139","h6j7mxym6hepf0c","{""user_agent"":""Mozilla/5.0 (Macintosh; Intel Mac OS X 10_14_4) AppleWebKit/537.36 (KHTML, like Gecko) Chrome/74.0.3729.169 Safari/537.36"",""on_chrome"":true,""on_mobile"":false,""language"":""en-US"",""screen_resolution"":[1440,900],""platform"":""MacIntel"",""timezone"":""Europe/Berlin""}","18","7782.615000005439","","","1558531847924","22","","","[]","Bamberg","false","false","8474.70000000624"
"","html-voicekey-response","144","844854","0.0-4.140-0.140","h6j7mxym6hepf0c","{""user_agent"":""Mozilla/5.0 (Macintosh; Intel Mac OS X 10_14_4) AppleWebKit/537.36 (KHTML, like Gecko) Chrome/74.0.3729.169 Safari/537.36"",""on_chrome"":true,""on_mobile"":false,""language"":""en-US"",""screen_resolution"":[1440,900],""platform"":""MacIntel"",""timezone"":""Europe/Berlin""}","18","2386.094999996107","","","1558531860411","27","","Tübingen","[]","Tübingen","true","true","3027.7999999963213"
"","html-voicekey-response","145","847455","0.0-4.141-0.141","h6j7mxym6hepf0c","{""user_agent"":""Mozilla/5.0 (Macintosh; Intel Mac OS X 10_14_4) AppleWebKit/537.36 (KHTML, like Gecko) Chrome/74.0.3729.169 Safari/537.36"",""on_chrome"":true,""on_mobile"":false,""language"":""en-US"",""screen_resolution"":[1440,900],""platform"":""MacIntel"",""timezone"":""Europe/Berlin""}","18","1498.9050000019838","","","1558531864048","23","","Stuttgart","[]","Stuttgart","true","false","1991.359999999986"
"","html-voicekey-response","146","850444","0.0-4.142-0.142","h6j7mxym6hepf0c","{""user_agent"":""Mozilla/5.0 (Macintosh; Intel Mac OS X 10_14_4) AppleWebKit/537.36 (KHTML, like Gecko) Chrome/74.0.3729.169 Safari/537.36"",""on_chrome"":true,""on_mobile"":false,""language"":""en-US"",""screen_resolution"":[1440,900],""platform"":""MacIntel"",""timezone"":""Europe/Berlin""}","18","1820.589999997383","","","1558531866649","27","","Tübingen","[]","Tübingen","true","false","2380.3699999989476"
"","html-voicekey-response","147","852977","0.0-4.143-0.143","h6j7mxym6hepf0c","{""user_agent"":""Mozilla/5.0 (Macintosh; Intel Mac OS X 10_14_4) AppleWebKit/537.36 (KHTML, like Gecko) Chrome/74.0.3729.169 Safari/537.36"",""on_chrome"":true,""on_mobile"":false,""language"":""en-US"",""screen_resolution"":[1440,900],""platform"":""MacIntel"",""timezone"":""Europe/Berlin""}","18","1448.5749999965542","","","1558531869638","24","","Köln","[]","Köln","true","false","1924.0950000020675"
"","html-voicekey-response","148","856677","0.0-4.144-0.144","h6j7mxym6hepf0c","{""user_agent"":""Mozilla/5.0 (Macintosh; Intel Mac OS X 10_14_4) AppleWebKit/537.36 (KHTML, like Gecko) Chrome/74.0.3729.169 Safari/537.36"",""on_chrome"":true,""on_mobile"":false,""language"":""en-US"",""screen_resolution"":[1440,900],""platform"":""MacIntel"",""timezone"":""Europe/Berlin""}","18","2033.6499999993016","","","1558531872170","28","","Regensburg","[]","Regensburg","true","true","3092.154999998398"
