"value","trial_type","trial_index","time_elapsed","internal_node_id","subject","browser_info","participant_number","rt","responses","view_history","presentation_start_time","id","text","response","keypresses","answer","correct","study","experimenter_rt"
"","call-function","0","3","0.0-0.0","3pmxft04s1s1gj1","{""user_agent"":""Mozilla/5.0 (Macintosh; Intel Mac OS X 10_14_4) AppleWebKit/537.36 (KHTML, like Gecko) Chrome/74.0.3729.169 Safari/537.36"",""on_chrome"":true,""on_mobile"":false,""language"":""en-US"",""screen_resolution"":[1440,900],""platform"":""MacIntel"",""timezone"":""Europe/Berlin""}","19","","","","","","","","","","","",""
"","survey-text","1","4412","0.0-1.0","3pmxft04s1s1gj1","{""user_agent"":""Mozilla/5.0 (Macintosh; Intel Mac OS X 10_14_4) AppleWebKit/537.36 (KHTML, like Gecko) Chrome/74.0.3729.169 Safari/537.36"",""on_chrome"":true,""on_mobile"":false,""language"":""en-US"",""screen_resolution"":[1440,900],""platform"":""MacIntel"",""timezone"":""Europe/Berlin""}","19","4407","{""Q0"":""19""}","","","","","","","","","",""
"","instructions","2","90658","0.0-2.0","3pmxft04s1s1gj1","{""user_agent"":""Mozilla/5.0 (Macintosh; Intel Mac OS X 10_14_4) AppleWebKit/537.36 (KHTML, like Gecko) Chrome/74.0.3729.169 Safari/537.36"",""on_chrome"":true,""on_mobile"":false,""language"":""en-US"",""screen_resolution"":[1440,900],""platform"":""MacIntel"",""timezone"":""Europe/Berlin""}","19","86244","","[{""page_index"":0,""viewing_time"":86244}]","","","","","","","","",""
"","call-function","3","90658","0.0-3.0","3pmxft04s1s1gj1","{""user_agent"":""Mozilla/5.0 (Macintosh; Intel Mac OS X 10_14_4) AppleWebKit/537.36 (KHTML, like Gecko) Chrome/74.0.3729.169 Safari/537.36"",""on_chrome"":true,""on_mobile"":false,""language"":""en-US"",""screen_resolution"":[1440,900],""platform"":""MacIntel"",""timezone"":""Europe/Berlin""}","19","","","","","","","","","","","",""
"","html-voicekey-response","4","94962","0.0-4.0-0.0","3pmxft04s1s1gj1","{""user_agent"":""Mozilla/5.0 (Macintosh; Intel Mac OS X 10_14_4) AppleWebKit/537.36 (KHTML, like Gecko) Chrome/74.0.3729.169 Safari/537.36"",""on_chrome"":true,""on_mobile"":false,""language"":""en-US"",""screen_resolution"":[1440,900],""platform"":""MacIntel"",""timezone"":""Europe/Berlin""}","19","3139.415000006766","","","1558604497713","1","","Magdeburg","[]","Magdeburg","true","true","3698.805000007269"
"","html-voicekey-response","5","98477","0.0-4.1-0.1","3pmxft04s1s1gj1","{""user_agent"":""Mozilla/5.0 (Macintosh; Intel Mac OS X 10_14_4) AppleWebKit/537.36 (KHTML, like Gecko) Chrome/74.0.3729.169 Safari/537.36"",""on_chrome"":true,""on_mobile"":false,""language"":""en-US"",""screen_resolution"":[1440,900],""platform"":""MacIntel"",""timezone"":""Europe/Berlin""}","19","2351.314999986999","","","1558604502019","1","","Magdeburg","[]","Magdeburg","true","false","2910.104999988107"
"","html-voicekey-response","6","100960","0.0-4.2-0.2","3pmxft04s1s1gj1","{""user_agent"":""Mozilla/5.0 (Macintosh; Intel Mac OS X 10_14_4) AppleWebKit/537.36 (KHTML, like Gecko) Chrome/74.0.3729.169 Safari/537.36"",""on_chrome"":true,""on_mobile"":false,""language"":""en-US"",""screen_resolution"":[1440,900],""platform"":""MacIntel"",""timezone"":""Europe/Berlin""}","19","1255.2300000041491","","","1558604505531","2","","Berlin","[]","Berlin","true","true","1880.6150000018533"
"","html-voicekey-response","7","103118","0.0-4.3-0.3","3pmxft04s1s1gj1","{""user_agent"":""Mozilla/5.0 (Macintosh; Intel Mac OS X 10_14_4) AppleWebKit/537.36 (KHTML, like Gecko) Chrome/74.0.3729.169 Safari/537.36"",""on_chrome"":true,""on_mobile"":false,""language"":""en-US"",""screen_resolution"":[1440,900],""platform"":""MacIntel"",""timezone"":""Europe/Berlin""}","19","971.5899999954039","","","1558604508014","2","","Berlin","[]","Berlin","true","false","1556.0499999992317"
"","html-voicekey-response","8","105934","0.0-4.4-0.4","3pmxft04s1s1gj1","{""user_agent"":""Mozilla/5.0 (Macintosh; Intel Mac OS X 10_14_4) AppleWebKit/537.36 (KHTML, like Gecko) Chrome/74.0.3729.169 Safari/537.36"",""on_chrome"":true,""on_mobile"":false,""language"":""en-US"",""screen_resolution"":[1440,900],""platform"":""MacIntel"",""timezone"":""Europe/Berlin""}","19","1438.5799999962096","","","1558604510172","3","","Ingolstadt","[]","Ingolstadt","true","true","2213.7300000031246"
"","html-voicekey-response","9","109934","0.0-4.5-0.5","3pmxft04s1s1gj1","{""user_agent"":""Mozilla/5.0 (Macintosh; Intel Mac OS X 10_14_4) AppleWebKit/537.36 (KHTML, like Gecko) Chrome/74.0.3729.169 Safari/537.36"",""on_chrome"":true,""on_mobile"":false,""language"":""en-US"",""screen_resolution"":[1440,900],""platform"":""MacIntel"",""timezone"":""Europe/Berlin""}","19","Infinity","","","1558604512988","4","","Würzburg","[]","Würzburg","true","true","3397.9850000032457"
"","html-voicekey-response","10","118367","0.0-4.6-0.6","3pmxft04s1s1gj1","{""user_agent"":""Mozilla/5.0 (Macintosh; Intel Mac OS X 10_14_4) AppleWebKit/537.36 (KHTML, like Gecko) Chrome/74.0.3729.169 Safari/537.36"",""on_chrome"":true,""on_mobile"":false,""language"":""en-US"",""screen_resolution"":[1440,900],""platform"":""MacIntel"",""timezone"":""Europe/Berlin""}","19","388.8000000095693","","","1558604516988","3","","","[]","Ingolstadt","false","false","4431.090000012773"
"","html-voicekey-response","11","127379","0.0-4.7-0.7","3pmxft04s1s1gj1","{""user_agent"":""Mozilla/5.0 (Macintosh; Intel Mac OS X 10_14_4) AppleWebKit/537.36 (KHTML, like Gecko) Chrome/74.0.3729.169 Safari/537.36"",""on_chrome"":true,""on_mobile"":false,""language"":""en-US"",""screen_resolution"":[1440,900],""platform"":""MacIntel"",""timezone"":""Europe/Berlin""}","19","100","","","1558604525421","4","","","[]","Würzburg","false","false","5009.924999991199"
"","html-voicekey-response","12","130091","0.0-4.8-0.8","3pmxft04s1s1gj1","{""user_agent"":""Mozilla/5.0 (Macintosh; Intel Mac OS X 10_14_4) AppleWebKit/537.36 (KHTML, like Gecko) Chrome/74.0.3729.169 Safari/537.36"",""on_chrome"":true,""on_mobile"":false,""language"":""en-US"",""screen_resolution"":[1440,900],""platform"":""MacIntel"",""timezone"":""Europe/Berlin""}","19","1390.2150000011084","","","1558604534433","5","","Aachen","[]","Aachen","true","true","2110.580000007758"
"","html-voicekey-response","13","134507","0.0-4.9-0.9","3pmxft04s1s1gj1","{""user_agent"":""Mozilla/5.0 (Macintosh; Intel Mac OS X 10_14_4) AppleWebKit/537.36 (KHTML, like Gecko) Chrome/74.0.3729.169 Safari/537.36"",""on_chrome"":true,""on_mobile"":false,""language"":""en-US"",""screen_resolution"":[1440,900],""platform"":""MacIntel"",""timezone"":""Europe/Berlin""}","19","Infinity","","","1558604537145","6","","Dresden","[]","Dresden","true","true","3813.9850000006845"
"","html-voicekey-response","14","142024","0.0-4.10-0.10","3pmxft04s1s1gj1","{""user_agent"":""Mozilla/5.0 (Macintosh; Intel Mac OS X 10_14_4) AppleWebKit/537.36 (KHTML, like Gecko) Chrome/74.0.3729.169 Safari/537.36"",""on_chrome"":true,""on_mobile"":false,""language"":""en-US"",""screen_resolution"":[1440,900],""platform"":""MacIntel"",""timezone"":""Europe/Berlin""}","19","556.2749999897554","","","1558604541562","5","","","[]","Aachen","false","false","3514.8150000022724"
"","html-voicekey-response","15","144966","0.0-4.11-0.11","3pmxft04s1s1gj1","{""user_agent"":""Mozilla/5.0 (Macintosh; Intel Mac OS X 10_14_4) AppleWebKit/537.36 (KHTML, like Gecko) Chrome/74.0.3729.169 Safari/537.36"",""on_chrome"":true,""on_mobile"":false,""language"":""en-US"",""screen_resolution"":[1440,900],""platform"":""MacIntel"",""timezone"":""Europe/Berlin""}","19","414.48500001009086","","","1558604549078","6","","Dresden","[]","Dresden","true","false","2339.9850000132574"
"","html-voicekey-response","16","147015","0.0-4.12-0.12","3pmxft04s1s1gj1","{""user_agent"":""Mozilla/5.0 (Macintosh; Intel Mac OS X 10_14_4) AppleWebKit/537.36 (KHTML, like Gecko) Chrome/74.0.3729.169 Safari/537.36"",""on_chrome"":true,""on_mobile"":false,""language"":""en-US"",""screen_resolution"":[1440,900],""platform"":""MacIntel"",""timezone"":""Europe/Berlin""}","19","822.1900000006193","","","1558604552020","2","","Berlin","[]","Berlin","true","false","1446.8800000031479"
"","html-voicekey-response","17","149717","0.0-4.13-0.13","3pmxft04s1s1gj1","{""user_agent"":""Mozilla/5.0 (Macintosh; Intel Mac OS X 10_14_4) AppleWebKit/537.36 (KHTML, like Gecko) Chrome/74.0.3729.169 Safari/537.36"",""on_chrome"":true,""on_mobile"":false,""language"":""en-US"",""screen_resolution"":[1440,900],""platform"":""MacIntel"",""timezone"":""Europe/Berlin""}","19","1471.6550000101329","","","1558604554070","1","","Magdeburg","[]","Magdeburg","true","false","2097.475000002305"
"","html-voicekey-response","18","158773","0.0-4.14-0.14","3pmxft04s1s1gj1","{""user_agent"":""Mozilla/5.0 (Macintosh; Intel Mac OS X 10_14_4) AppleWebKit/537.36 (KHTML, like Gecko) Chrome/74.0.3729.169 Safari/537.36"",""on_chrome"":true,""on_mobile"":false,""language"":""en-US"",""screen_resolution"":[1440,900],""platform"":""MacIntel"",""timezone"":""Europe/Berlin""}","19","326.5550000013085","","","1558604556772","7","","Erfurt","[]","Erfurt","true","true","8453.155000010156"
"","html-voicekey-response","19","167041","0.0-4.15-0.15","3pmxft04s1s1gj1","{""user_agent"":""Mozilla/5.0 (Macintosh; Intel Mac OS X 10_14_4) AppleWebKit/537.36 (KHTML, like Gecko) Chrome/74.0.3729.169 Safari/537.36"",""on_chrome"":true,""on_mobile"":false,""language"":""en-US"",""screen_resolution"":[1440,900],""platform"":""MacIntel"",""timezone"":""Europe/Berlin""}","19","Infinity","","","1558604565828","3","","Ingolstadt","[]","Ingolstadt","true","false","7663.074999989476"
"","html-voicekey-response","20","173198","0.0-4.16-0.16","3pmxft04s1s1gj1","{""user_agent"":""Mozilla/5.0 (Macintosh; Intel Mac OS X 10_14_4) AppleWebKit/537.36 (KHTML, like Gecko) Chrome/74.0.3729.169 Safari/537.36"",""on_chrome"":true,""on_mobile"":false,""language"":""en-US"",""screen_resolution"":[1440,900],""platform"":""MacIntel"",""timezone"":""Europe/Berlin""}","19","5045.200000002142","","","1558604574096","7","","Erfurt","[]","Erfurt","true","false","5553.289999996196"
"","html-voicekey-response","21","180192","0.0-4.17-0.17","3pmxft04s1s1gj1","{""user_agent"":""Mozilla/5.0 (Macintosh; Intel Mac OS X 10_14_4) AppleWebKit/537.36 (KHTML, like Gecko) Chrome/74.0.3729.169 Safari/537.36"",""on_chrome"":true,""on_mobile"":false,""language"":""en-US"",""screen_resolution"":[1440,900],""platform"":""MacIntel"",""timezone"":""Europe/Berlin""}","19","1966.3300000045915","","","1558604580252","4","","","[]","Würzburg","false","false","2991.455000010319"
"","html-voicekey-response","22","182691","0.0-4.18-0.18","3pmxft04s1s1gj1","{""user_agent"":""Mozilla/5.0 (Macintosh; Intel Mac OS X 10_14_4) AppleWebKit/537.36 (KHTML, like Gecko) Chrome/74.0.3729.169 Safari/537.36"",""on_chrome"":true,""on_mobile"":false,""language"":""en-US"",""screen_resolution"":[1440,900],""platform"":""MacIntel"",""timezone"":""Europe/Berlin""}","19","1305.255000008247","","","1558604587247","5","","Aachen","[]","Aachen","true","false","1896.6749999963213"
"","html-voicekey-response","23","186600","0.0-4.19-0.19","3pmxft04s1s1gj1","{""user_agent"":""Mozilla/5.0 (Macintosh; Intel Mac OS X 10_14_4) AppleWebKit/537.36 (KHTML, like Gecko) Chrome/74.0.3729.169 Safari/537.36"",""on_chrome"":true,""on_mobile"":false,""language"":""en-US"",""screen_resolution"":[1440,900],""platform"":""MacIntel"",""timezone"":""Europe/Berlin""}","19","2272.930000000843","","","1558604589746","8","","Gotha","[]","Gotha","true","true","3306.509999994887"
"","html-voicekey-response","24","189800","0.0-4.20-0.20","3pmxft04s1s1gj1","{""user_agent"":""Mozilla/5.0 (Macintosh; Intel Mac OS X 10_14_4) AppleWebKit/537.36 (KHTML, like Gecko) Chrome/74.0.3729.169 Safari/537.36"",""on_chrome"":true,""on_mobile"":false,""language"":""en-US"",""screen_resolution"":[1440,900],""platform"":""MacIntel"",""timezone"":""Europe/Berlin""}","19","100","","","1558604593656","9","","München","[]","München","true","true","2596.749999996973"
"","html-voicekey-response","25","199783","0.0-4.21-0.21","3pmxft04s1s1gj1","{""user_agent"":""Mozilla/5.0 (Macintosh; Intel Mac OS X 10_14_4) AppleWebKit/537.36 (KHTML, like Gecko) Chrome/74.0.3729.169 Safari/537.36"",""on_chrome"":true,""on_mobile"":false,""language"":""en-US"",""screen_resolution"":[1440,900],""platform"":""MacIntel"",""timezone"":""Europe/Berlin""}","19","4537.839999998896","","","1558604596855","8","","","[]","Gotha","false","false","5980.6099999987055"
"","html-voicekey-response","26","202692","0.0-4.22-0.22","3pmxft04s1s1gj1","{""user_agent"":""Mozilla/5.0 (Macintosh; Intel Mac OS X 10_14_4) AppleWebKit/537.36 (KHTML, like Gecko) Chrome/74.0.3729.169 Safari/537.36"",""on_chrome"":true,""on_mobile"":false,""language"":""en-US"",""screen_resolution"":[1440,900],""platform"":""MacIntel"",""timezone"":""Europe/Berlin""}","19","100","","","1558604606838","9","","München","[]","München","true","false","2305.7600000029197"
"","html-voicekey-response","27","205408","0.0-4.23-0.23","3pmxft04s1s1gj1","{""user_agent"":""Mozilla/5.0 (Macintosh; Intel Mac OS X 10_14_4) AppleWebKit/537.36 (KHTML, like Gecko) Chrome/74.0.3729.169 Safari/537.36"",""on_chrome"":true,""on_mobile"":false,""language"":""en-US"",""screen_resolution"":[1440,900],""platform"":""MacIntel"",""timezone"":""Europe/Berlin""}","19","1220.9450000026031","","","1558604609747","6","","Dresden","[]","Dresden","true","false","2112.615000005462"
"","html-voicekey-response","28","208666","0.0-4.24-0.24","3pmxft04s1s1gj1","{""user_agent"":""Mozilla/5.0 (Macintosh; Intel Mac OS X 10_14_4) AppleWebKit/537.36 (KHTML, like Gecko) Chrome/74.0.3729.169 Safari/537.36"",""on_chrome"":true,""on_mobile"":false,""language"":""en-US"",""screen_resolution"":[1440,900],""platform"":""MacIntel"",""timezone"":""Europe/Berlin""}","19","1977.0799999913202","","","1558604612465","3","","Ingolstadt","[]","Ingolstadt","true","false","2653.2049999950686"
"","html-voicekey-response","29","211216","0.0-4.25-0.25","3pmxft04s1s1gj1","{""user_agent"":""Mozilla/5.0 (Macintosh; Intel Mac OS X 10_14_4) AppleWebKit/537.36 (KHTML, like Gecko) Chrome/74.0.3729.169 Safari/537.36"",""on_chrome"":true,""on_mobile"":false,""language"":""en-US"",""screen_resolution"":[1440,900],""platform"":""MacIntel"",""timezone"":""Europe/Berlin""}","19","1422.4250000059606","","","1558604615721","10","","Heidelberg","[]","Heidelberg","true","true","1947.8300000046147"
"","html-voicekey-response","30","213967","0.0-4.26-0.26","3pmxft04s1s1gj1","{""user_agent"":""Mozilla/5.0 (Macintosh; Intel Mac OS X 10_14_4) AppleWebKit/537.36 (KHTML, like Gecko) Chrome/74.0.3729.169 Safari/537.36"",""on_chrome"":true,""on_mobile"":false,""language"":""en-US"",""screen_resolution"":[1440,900],""platform"":""MacIntel"",""timezone"":""Europe/Berlin""}","19","1438.3999999934808","","","1558604618271","11","","Alfeld","[]","Alfeld","true","true","2147.6849999889964"
"","html-voicekey-response","31","216318","0.0-4.27-0.27","3pmxft04s1s1gj1","{""user_agent"":""Mozilla/5.0 (Macintosh; Intel Mac OS X 10_14_4) AppleWebKit/537.36 (KHTML, like Gecko) Chrome/74.0.3729.169 Safari/537.36"",""on_chrome"":true,""on_mobile"":false,""language"":""en-US"",""screen_resolution"":[1440,900],""platform"":""MacIntel"",""timezone"":""Europe/Berlin""}","19","1204.5149999992923","","","1558604621022","10","","Heidelberg","[]","Heidelberg","true","false","1746.3900000002468"
"","html-voicekey-response","32","219922","0.0-4.28-0.28","3pmxft04s1s1gj1","{""user_agent"":""Mozilla/5.0 (Macintosh; Intel Mac OS X 10_14_4) AppleWebKit/537.36 (KHTML, like Gecko) Chrome/74.0.3729.169 Safari/537.36"",""on_chrome"":true,""on_mobile"":false,""language"":""en-US"",""screen_resolution"":[1440,900],""platform"":""MacIntel"",""timezone"":""Europe/Berlin""}","19","2427.510000003013","","","1558604623372","11","","Alfeld","[]","Alfeld","true","false","3002.4850000045262"
"","html-voicekey-response","33","223206","0.0-4.29-0.29","3pmxft04s1s1gj1","{""user_agent"":""Mozilla/5.0 (Macintosh; Intel Mac OS X 10_14_4) AppleWebKit/537.36 (KHTML, like Gecko) Chrome/74.0.3729.169 Safari/537.36"",""on_chrome"":true,""on_mobile"":false,""language"":""en-US"",""screen_resolution"":[1440,900],""platform"":""MacIntel"",""timezone"":""Europe/Berlin""}","19","2138.195000001206","","","1558604626978","4","","Würzburg","[]","Würzburg","true","false","2680.2999999927124"
"","html-voicekey-response","34","225674","0.0-4.30-0.30","3pmxft04s1s1gj1","{""user_agent"":""Mozilla/5.0 (Macintosh; Intel Mac OS X 10_14_4) AppleWebKit/537.36 (KHTML, like Gecko) Chrome/74.0.3729.169 Safari/537.36"",""on_chrome"":true,""on_mobile"":false,""language"":""en-US"",""screen_resolution"":[1440,900],""platform"":""MacIntel"",""timezone"":""Europe/Berlin""}","19","1270.825000008545","","","1558604630262","7","","Erfurt","[]","Erfurt","true","false","1863.615000009304"
"","html-voicekey-response","35","228383","0.0-4.31-0.31","3pmxft04s1s1gj1","{""user_agent"":""Mozilla/5.0 (Macintosh; Intel Mac OS X 10_14_4) AppleWebKit/537.36 (KHTML, like Gecko) Chrome/74.0.3729.169 Safari/537.36"",""on_chrome"":true,""on_mobile"":false,""language"":""en-US"",""screen_resolution"":[1440,900],""platform"":""MacIntel"",""timezone"":""Europe/Berlin""}","19","1738.484999988787","","","1558604632728","12","","Dessau","[]","Dessau","true","true","2106.854999990901"
"","html-voicekey-response","36","230616","0.0-4.32-0.32","3pmxft04s1s1gj1","{""user_agent"":""Mozilla/5.0 (Macintosh; Intel Mac OS X 10_14_4) AppleWebKit/537.36 (KHTML, like Gecko) Chrome/74.0.3729.169 Safari/537.36"",""on_chrome"":true,""on_mobile"":false,""language"":""en-US"",""screen_resolution"":[1440,900],""platform"":""MacIntel"",""timezone"":""Europe/Berlin""}","19","1053.5949999992504","","","1558604635438","13","","Chemnitz","[]","Chemnitz","true","true","1629.610000003595"
"","html-voicekey-response","37","237849","0.0-4.33-0.33","3pmxft04s1s1gj1","{""user_agent"":""Mozilla/5.0 (Macintosh; Intel Mac OS X 10_14_4) AppleWebKit/537.36 (KHTML, like Gecko) Chrome/74.0.3729.169 Safari/537.36"",""on_chrome"":true,""on_mobile"":false,""language"":""en-US"",""screen_resolution"":[1440,900],""platform"":""MacIntel"",""timezone"":""Europe/Berlin""}","19","1838.9550000082004","","","1558604637671","12","","","[]","Dessau","false","false","3230.390000011539"
"","html-voicekey-response","38","247511","0.0-4.34-0.34","3pmxft04s1s1gj1","{""user_agent"":""Mozilla/5.0 (Macintosh; Intel Mac OS X 10_14_4) AppleWebKit/537.36 (KHTML, like Gecko) Chrome/74.0.3729.169 Safari/537.36"",""on_chrome"":true,""on_mobile"":false,""language"":""en-US"",""screen_resolution"":[1440,900],""platform"":""MacIntel"",""timezone"":""Europe/Berlin""}","19","5122.3649999972895","","","1558604644904","13","","","[]","Chemnitz","false","false","5659.429999999702"
"","html-voicekey-response","39","254043","0.0-4.35-0.35","3pmxft04s1s1gj1","{""user_agent"":""Mozilla/5.0 (Macintosh; Intel Mac OS X 10_14_4) AppleWebKit/537.36 (KHTML, like Gecko) Chrome/74.0.3729.169 Safari/537.36"",""on_chrome"":true,""on_mobile"":false,""language"":""en-US"",""screen_resolution"":[1440,900],""platform"":""MacIntel"",""timezone"":""Europe/Berlin""}","19","Infinity","","","1558604654565","8","","Gotha","[]","Gotha","true","false","5930.240000001504"
"","html-voicekey-response","40","256338","0.0-4.36-0.36","3pmxft04s1s1gj1","{""user_agent"":""Mozilla/5.0 (Macintosh; Intel Mac OS X 10_14_4) AppleWebKit/537.36 (KHTML, like Gecko) Chrome/74.0.3729.169 Safari/537.36"",""on_chrome"":true,""on_mobile"":false,""language"":""en-US"",""screen_resolution"":[1440,900],""platform"":""MacIntel"",""timezone"":""Europe/Berlin""}","19","1200.4200000026963","","","1558604661098","9","","München","[]","München","true","false","1692.2250000061467"
"","html-voicekey-response","41","259054","0.0-4.37-0.37","3pmxft04s1s1gj1","{""user_agent"":""Mozilla/5.0 (Macintosh; Intel Mac OS X 10_14_4) AppleWebKit/537.36 (KHTML, like Gecko) Chrome/74.0.3729.169 Safari/537.36"",""on_chrome"":true,""on_mobile"":false,""language"":""en-US"",""screen_resolution"":[1440,900],""platform"":""MacIntel"",""timezone"":""Europe/Berlin""}","19","1355.0349999948871","","","1558604663394","14","","Potsdam","[]","Potsdam","true","true","2112.6399999920977"
"","html-voicekey-response","42","261472","0.0-4.38-0.38","3pmxft04s1s1gj1","{""user_agent"":""Mozilla/5.0 (Macintosh; Intel Mac OS X 10_14_4) AppleWebKit/537.36 (KHTML, like Gecko) Chrome/74.0.3729.169 Safari/537.36"",""on_chrome"":true,""on_mobile"":false,""language"":""en-US"",""screen_resolution"":[1440,900],""platform"":""MacIntel"",""timezone"":""Europe/Berlin""}","19","1106.1399999978953","","","1558604666109","10","","Heidelberg","[]","Heidelberg","true","false","1815.134999997099"
"","html-voicekey-response","43","269155","0.0-4.39-0.39","3pmxft04s1s1gj1","{""user_agent"":""Mozilla/5.0 (Macintosh; Intel Mac OS X 10_14_4) AppleWebKit/537.36 (KHTML, like Gecko) Chrome/74.0.3729.169 Safari/537.36"",""on_chrome"":true,""on_mobile"":false,""language"":""en-US"",""screen_resolution"":[1440,900],""platform"":""MacIntel"",""timezone"":""Europe/Berlin""}","19","3087.8100000062027","","","1558604668527","14","","","[]","Potsdam","false","false","3679.87500000163"
"","html-voicekey-response","44","280001","0.0-4.40-0.40","3pmxft04s1s1gj1","{""user_agent"":""Mozilla/5.0 (Macintosh; Intel Mac OS X 10_14_4) AppleWebKit/537.36 (KHTML, like Gecko) Chrome/74.0.3729.169 Safari/537.36"",""on_chrome"":true,""on_mobile"":false,""language"":""en-US"",""screen_resolution"":[1440,900],""platform"":""MacIntel"",""timezone"":""Europe/Berlin""}","19","5649.52499999511","","","1558604676209","11","","","[]","Alfeld","false","false","6841.384999992442"
"","html-voicekey-response","45","282840","0.0-4.41-0.41","3pmxft04s1s1gj1","{""user_agent"":""Mozilla/5.0 (Macintosh; Intel Mac OS X 10_14_4) AppleWebKit/537.36 (KHTML, like Gecko) Chrome/74.0.3729.169 Safari/537.36"",""on_chrome"":true,""on_mobile"":false,""language"":""en-US"",""screen_resolution"":[1440,900],""platform"":""MacIntel"",""timezone"":""Europe/Berlin""}","19","1661.0849999941188","","","1558604687055","12","","Dessau","[]","Dessau","true","false","2235.849999997299"
"","html-voicekey-response","46","285606","0.0-4.42-0.42","3pmxft04s1s1gj1","{""user_agent"":""Mozilla/5.0 (Macintosh; Intel Mac OS X 10_14_4) AppleWebKit/537.36 (KHTML, like Gecko) Chrome/74.0.3729.169 Safari/537.36"",""on_chrome"":true,""on_mobile"":false,""language"":""en-US"",""screen_resolution"":[1440,900],""platform"":""MacIntel"",""timezone"":""Europe/Berlin""}","19","1636.3050000016578","","","1558604689897","15","","Nürnberg","[]","Nürnberg","true","true","2160.8549999946263"
"","html-voicekey-response","47","293931","0.0-4.43-0.43","3pmxft04s1s1gj1","{""user_agent"":""Mozilla/5.0 (Macintosh; Intel Mac OS X 10_14_4) AppleWebKit/537.36 (KHTML, like Gecko) Chrome/74.0.3729.169 Safari/537.36"",""on_chrome"":true,""on_mobile"":false,""language"":""en-US"",""screen_resolution"":[1440,900],""platform"":""MacIntel"",""timezone"":""Europe/Berlin""}","19","3512.7250000021654","","","1558604692661","13","","","[]","Chemnitz","false","false","4321.595000001253"
"","html-voicekey-response","48","305433","0.0-4.44-0.44","3pmxft04s1s1gj1","{""user_agent"":""Mozilla/5.0 (Macintosh; Intel Mac OS X 10_14_4) AppleWebKit/537.36 (KHTML, like Gecko) Chrome/74.0.3729.169 Safari/537.36"",""on_chrome"":true,""on_mobile"":false,""language"":""en-US"",""screen_resolution"":[1440,900],""platform"":""MacIntel"",""timezone"":""Europe/Berlin""}","19","6755.38500000569","","","1558604700986","15","","","[]","Nürnberg","false","false","7497.340000001714"
"","html-voicekey-response","49","310226","0.0-4.45-0.45","3pmxft04s1s1gj1","{""user_agent"":""Mozilla/5.0 (Macintosh; Intel Mac OS X 10_14_4) AppleWebKit/537.36 (KHTML, like Gecko) Chrome/74.0.3729.169 Safari/537.36"",""on_chrome"":true,""on_mobile"":false,""language"":""en-US"",""screen_resolution"":[1440,900],""platform"":""MacIntel"",""timezone"":""Europe/Berlin""}","19","3548.0049999985845","","","1558604712488","8","","Gotha","[]","Gotha","true","false","4190.255000008619"
"","html-voicekey-response","50","314493","0.0-4.46-0.46","3pmxft04s1s1gj1","{""user_agent"":""Mozilla/5.0 (Macintosh; Intel Mac OS X 10_14_4) AppleWebKit/537.36 (KHTML, like Gecko) Chrome/74.0.3729.169 Safari/537.36"",""on_chrome"":true,""on_mobile"":false,""language"":""en-US"",""screen_resolution"":[1440,900],""platform"":""MacIntel"",""timezone"":""Europe/Berlin""}","19","2737.1749999964145","","","1558604717282","3","","Ingolstadt","[]","Ingolstadt","true","false","3662.609999999404"
"","html-voicekey-response","51","317339","0.0-4.47-0.47","3pmxft04s1s1gj1","{""user_agent"":""Mozilla/5.0 (Macintosh; Intel Mac OS X 10_14_4) AppleWebKit/537.36 (KHTML, like Gecko) Chrome/74.0.3729.169 Safari/537.36"",""on_chrome"":true,""on_mobile"":false,""language"":""en-US"",""screen_resolution"":[1440,900],""platform"":""MacIntel"",""timezone"":""Europe/Berlin""}","19","1401.1300000073156","","","1558604721549","14","","Potsdam","[]","Potsdam","true","false","2242.4800000007963"
"","html-voicekey-response","52","321057","0.0-4.48-0.48","3pmxft04s1s1gj1","{""user_agent"":""Mozilla/5.0 (Macintosh; Intel Mac OS X 10_14_4) AppleWebKit/537.36 (KHTML, like Gecko) Chrome/74.0.3729.169 Safari/537.36"",""on_chrome"":true,""on_mobile"":false,""language"":""en-US"",""screen_resolution"":[1440,900],""platform"":""MacIntel"",""timezone"":""Europe/Berlin""}","19","2405.4199999898906","","","1558604724395","11","","Alfeld","[]","Alfeld","true","false","3114.224999997532"
"","html-voicekey-response","53","324173","0.0-4.49-0.49","3pmxft04s1s1gj1","{""user_agent"":""Mozilla/5.0 (Macintosh; Intel Mac OS X 10_14_4) AppleWebKit/537.36 (KHTML, like Gecko) Chrome/74.0.3729.169 Safari/537.36"",""on_chrome"":true,""on_mobile"":false,""language"":""en-US"",""screen_resolution"":[1440,900],""platform"":""MacIntel"",""timezone"":""Europe/Berlin""}","19","2003.9500000073808","","","1558604728112","4","","Würzburg","[]","Würzburg","true","false","2512.8750000003492"
"","html-voicekey-response","54","327781","0.0-4.50-0.50","3pmxft04s1s1gj1","{""user_agent"":""Mozilla/5.0 (Macintosh; Intel Mac OS X 10_14_4) AppleWebKit/537.36 (KHTML, like Gecko) Chrome/74.0.3729.169 Safari/537.36"",""on_chrome"":true,""on_mobile"":false,""language"":""en-US"",""screen_resolution"":[1440,900],""platform"":""MacIntel"",""timezone"":""Europe/Berlin""}","19","2446.4349999996834","","","1558604731227","16","","Schwangau","[]","Schwangau","true","true","3005.6800000020303"
"","html-voicekey-response","55","331981","0.0-4.51-0.51","3pmxft04s1s1gj1","{""user_agent"":""Mozilla/5.0 (Macintosh; Intel Mac OS X 10_14_4) AppleWebKit/537.36 (KHTML, like Gecko) Chrome/74.0.3729.169 Safari/537.36"",""on_chrome"":true,""on_mobile"":false,""language"":""en-US"",""screen_resolution"":[1440,900],""platform"":""MacIntel"",""timezone"":""Europe/Berlin""}","19","Infinity","","","1558604734836","13","","Chemnitz","[]","Chemnitz","true","false","3596.8750000029104"
"","html-voicekey-response","56","335081","0.0-4.52-0.52","3pmxft04s1s1gj1","{""user_agent"":""Mozilla/5.0 (Macintosh; Intel Mac OS X 10_14_4) AppleWebKit/537.36 (KHTML, like Gecko) Chrome/74.0.3729.169 Safari/537.36"",""on_chrome"":true,""on_mobile"":false,""language"":""en-US"",""screen_resolution"":[1440,900],""platform"":""MacIntel"",""timezone"":""Europe/Berlin""}","19","1905.1649999981514","","","1558604739036","16","","Schwangau","[]","Schwangau","true","false","2497.159999998985"
"","html-voicekey-response","57","345355","0.0-4.53-0.53","3pmxft04s1s1gj1","{""user_agent"":""Mozilla/5.0 (Macintosh; Intel Mac OS X 10_14_4) AppleWebKit/537.36 (KHTML, like Gecko) Chrome/74.0.3729.169 Safari/537.36"",""on_chrome"":true,""on_mobile"":false,""language"":""en-US"",""screen_resolution"":[1440,900],""platform"":""MacIntel"",""timezone"":""Europe/Berlin""}","19","4778.030000010249","","","1558604742136","8","","","[]","Gotha","false","false","6271.319999999832"
"","html-voicekey-response","58","354180","0.0-4.54-0.54","3pmxft04s1s1gj1","{""user_agent"":""Mozilla/5.0 (Macintosh; Intel Mac OS X 10_14_4) AppleWebKit/537.36 (KHTML, like Gecko) Chrome/74.0.3729.169 Safari/537.36"",""on_chrome"":true,""on_mobile"":false,""language"":""en-US"",""screen_resolution"":[1440,900],""platform"":""MacIntel"",""timezone"":""Europe/Berlin""}","19","Infinity","","","1558604752410","15","","Nürnberg","[]","Nürnberg","true","false","8221.514999997453"
"","html-voicekey-response","59","356498","0.0-4.55-0.55","3pmxft04s1s1gj1","{""user_agent"":""Mozilla/5.0 (Macintosh; Intel Mac OS X 10_14_4) AppleWebKit/537.36 (KHTML, like Gecko) Chrome/74.0.3729.169 Safari/537.36"",""on_chrome"":true,""on_mobile"":false,""language"":""en-US"",""screen_resolution"":[1440,900],""platform"":""MacIntel"",""timezone"":""Europe/Berlin""}","19","1270.4100000062958","","","1558604761235","17","","Leipzig","[]","Leipzig","true","true","1712.6400000124704"
"","html-voicekey-response","60","359104","0.0-4.56-0.56","3pmxft04s1s1gj1","{""user_agent"":""Mozilla/5.0 (Macintosh; Intel Mac OS X 10_14_4) AppleWebKit/537.36 (KHTML, like Gecko) Chrome/74.0.3729.169 Safari/537.36"",""on_chrome"":true,""on_mobile"":false,""language"":""en-US"",""screen_resolution"":[1440,900],""platform"":""MacIntel"",""timezone"":""Europe/Berlin""}","19","1360.3249999958557","","","1558604763554","18","","Forchheim","[]","Forchheim","true","true","2002.2350000072038"
"","html-voicekey-response","61","362553","0.0-4.57-0.57","3pmxft04s1s1gj1","{""user_agent"":""Mozilla/5.0 (Macintosh; Intel Mac OS X 10_14_4) AppleWebKit/537.36 (KHTML, like Gecko) Chrome/74.0.3729.169 Safari/537.36"",""on_chrome"":true,""on_mobile"":false,""language"":""en-US"",""screen_resolution"":[1440,900],""platform"":""MacIntel"",""timezone"":""Europe/Berlin""}","19","2304.1549999996555","","","1558604766159","17","","Leipzig","[]","Leipzig","true","false","2846.080000002985"
"","html-voicekey-response","62","375288","0.0-4.58-0.58","3pmxft04s1s1gj1","{""user_agent"":""Mozilla/5.0 (Macintosh; Intel Mac OS X 10_14_4) AppleWebKit/537.36 (KHTML, like Gecko) Chrome/74.0.3729.169 Safari/537.36"",""on_chrome"":true,""on_mobile"":false,""language"":""en-US"",""screen_resolution"":[1440,900],""platform"":""MacIntel"",""timezone"":""Europe/Berlin""}","19","8255.234999998565","","","1558604769608","18","","","[]","Forchheim","false","false","8731.134999994538"
"","html-voicekey-response","63","379212","0.0-4.59-0.59","3pmxft04s1s1gj1","{""user_agent"":""Mozilla/5.0 (Macintosh; Intel Mac OS X 10_14_4) AppleWebKit/537.36 (KHTML, like Gecko) Chrome/74.0.3729.169 Safari/537.36"",""on_chrome"":true,""on_mobile"":false,""language"":""en-US"",""screen_resolution"":[1440,900],""platform"":""MacIntel"",""timezone"":""Europe/Berlin""}","19","2729.540000009211","","","1558604782343","13","","Chemnitz","[]","Chemnitz","true","false","3321.5049999998882"
"","html-voicekey-response","64","387331","0.0-4.60-0.60","3pmxft04s1s1gj1","{""user_agent"":""Mozilla/5.0 (Macintosh; Intel Mac OS X 10_14_4) AppleWebKit/537.36 (KHTML, like Gecko) Chrome/74.0.3729.169 Safari/537.36"",""on_chrome"":true,""on_mobile"":false,""language"":""en-US"",""screen_resolution"":[1440,900],""platform"":""MacIntel"",""timezone"":""Europe/Berlin""}","19","3221.910000001872","","","1558604786268","8","","","[]","Gotha","false","false","4113.379999995232"
"","html-voicekey-response","65","390540","0.0-4.61-0.61","3pmxft04s1s1gj1","{""user_agent"":""Mozilla/5.0 (Macintosh; Intel Mac OS X 10_14_4) AppleWebKit/537.36 (KHTML, like Gecko) Chrome/74.0.3729.169 Safari/537.36"",""on_chrome"":true,""on_mobile"":false,""language"":""en-US"",""screen_resolution"":[1440,900],""platform"":""MacIntel"",""timezone"":""Europe/Berlin""}","19","1864.3600000012434","","","1558604794385","16","","Schwangau","[]","Schwangau","true","false","2607.285000005504"
"","html-voicekey-response","66","399507","0.0-4.62-0.62","3pmxft04s1s1gj1","{""user_agent"":""Mozilla/5.0 (Macintosh; Intel Mac OS X 10_14_4) AppleWebKit/537.36 (KHTML, like Gecko) Chrome/74.0.3729.169 Safari/537.36"",""on_chrome"":true,""on_mobile"":false,""language"":""en-US"",""screen_resolution"":[1440,900],""platform"":""MacIntel"",""timezone"":""Europe/Berlin""}","19","7821.255000011506","","","1558604797595","15","","Nürnberg","[]","Nürnberg","true","false","8363.245000000461"
"","html-voicekey-response","67","402419","0.0-4.63-0.63","3pmxft04s1s1gj1","{""user_agent"":""Mozilla/5.0 (Macintosh; Intel Mac OS X 10_14_4) AppleWebKit/537.36 (KHTML, like Gecko) Chrome/74.0.3729.169 Safari/537.36"",""on_chrome"":true,""on_mobile"":false,""language"":""en-US"",""screen_resolution"":[1440,900],""platform"":""MacIntel"",""timezone"":""Europe/Berlin""}","19","1533.529999994999","","","1558604806562","3","","Ingolstadt","[]","Ingolstadt","true","false","2308.7850000010803"
"","html-voicekey-response","68","405402","0.0-4.64-0.64","3pmxft04s1s1gj1","{""user_agent"":""Mozilla/5.0 (Macintosh; Intel Mac OS X 10_14_4) AppleWebKit/537.36 (KHTML, like Gecko) Chrome/74.0.3729.169 Safari/537.36"",""on_chrome"":true,""on_mobile"":false,""language"":""en-US"",""screen_resolution"":[1440,900],""platform"":""MacIntel"",""timezone"":""Europe/Berlin""}","19","1788.1700000087499","","","1558604809474","13","","Chemnitz","[]","Chemnitz","true","false","2380.0500000070315"
"","html-voicekey-response","69","411421","0.0-4.65-0.65","3pmxft04s1s1gj1","{""user_agent"":""Mozilla/5.0 (Macintosh; Intel Mac OS X 10_14_4) AppleWebKit/537.36 (KHTML, like Gecko) Chrome/74.0.3729.169 Safari/537.36"",""on_chrome"":true,""on_mobile"":false,""language"":""en-US"",""screen_resolution"":[1440,900],""platform"":""MacIntel"",""timezone"":""Europe/Berlin""}","19","4834.084999989345","","","1558604812460","11","","Alfeld","[]","Alfeld","true","false","5410.694999998668"
"","html-voicekey-response","70","413859","0.0-4.66-0.66","3pmxft04s1s1gj1","{""user_agent"":""Mozilla/5.0 (Macintosh; Intel Mac OS X 10_14_4) AppleWebKit/537.36 (KHTML, like Gecko) Chrome/74.0.3729.169 Safari/537.36"",""on_chrome"":true,""on_mobile"":false,""language"":""en-US"",""screen_resolution"":[1440,900],""platform"":""MacIntel"",""timezone"":""Europe/Berlin""}","19","1342.5999999979745","","","1558604818477","17","","Leipzig","[]","Leipzig","true","false","1834.7150000045076"
"","html-voicekey-response","71","417642","0.0-4.67-0.67","3pmxft04s1s1gj1","{""user_agent"":""Mozilla/5.0 (Macintosh; Intel Mac OS X 10_14_4) AppleWebKit/537.36 (KHTML, like Gecko) Chrome/74.0.3729.169 Safari/537.36"",""on_chrome"":true,""on_mobile"":false,""language"":""en-US"",""screen_resolution"":[1440,900],""platform"":""MacIntel"",""timezone"":""Europe/Berlin""}","19","2537.384999997658","","","1558604820915","18","","Forchheim","[]","Forchheim","true","false","3179.470000002766"
"","html-voicekey-response","72","420026","0.0-4.68-0.68","3pmxft04s1s1gj1","{""user_agent"":""Mozilla/5.0 (Macintosh; Intel Mac OS X 10_14_4) AppleWebKit/537.36 (KHTML, like Gecko) Chrome/74.0.3729.169 Safari/537.36"",""on_chrome"":true,""on_mobile"":false,""language"":""en-US"",""screen_resolution"":[1440,900],""platform"":""MacIntel"",""timezone"":""Europe/Berlin""}","19","1171.439999999921","","","1558604824697","2","","Berlin","[]","Berlin","true","false","1780.5850000004284"
"","html-voicekey-response","73","427376","0.0-4.69-0.69","3pmxft04s1s1gj1","{""user_agent"":""Mozilla/5.0 (Macintosh; Intel Mac OS X 10_14_4) AppleWebKit/537.36 (KHTML, like Gecko) Chrome/74.0.3729.169 Safari/537.36"",""on_chrome"":true,""on_mobile"":false,""language"":""en-US"",""screen_resolution"":[1440,900],""platform"":""MacIntel"",""timezone"":""Europe/Berlin""}","19","2588.349999999837","","","1558604827081","15","","","[]","Nürnberg","false","false","3346.6650000045775"
"","html-voicekey-response","74","430106","0.0-4.70-0.70","3pmxft04s1s1gj1","{""user_agent"":""Mozilla/5.0 (Macintosh; Intel Mac OS X 10_14_4) AppleWebKit/537.36 (KHTML, like Gecko) Chrome/74.0.3729.169 Safari/537.36"",""on_chrome"":true,""on_mobile"":false,""language"":""en-US"",""screen_resolution"":[1440,900],""platform"":""MacIntel"",""timezone"":""Europe/Berlin""}","19","1618.0549999933924","","","1558604834432","1","","Magdeburg","[]","Magdeburg","true","false","2126.699999993434"
"","html-voicekey-response","75","433173","0.0-4.71-0.71","3pmxft04s1s1gj1","{""user_agent"":""Mozilla/5.0 (Macintosh; Intel Mac OS X 10_14_4) AppleWebKit/537.36 (KHTML, like Gecko) Chrome/74.0.3729.169 Safari/537.36"",""on_chrome"":true,""on_mobile"":false,""language"":""en-US"",""screen_resolution"":[1440,900],""platform"":""MacIntel"",""timezone"":""Europe/Berlin""}","19","1969.8949999963866","","","1558604837162","8","","Gotha","[]","Gotha","true","false","2462.825000009616"
"","html-voicekey-response","76","438648","0.0-4.72-0.72","3pmxft04s1s1gj1","{""user_agent"":""Mozilla/5.0 (Macintosh; Intel Mac OS X 10_14_4) AppleWebKit/537.36 (KHTML, like Gecko) Chrome/74.0.3729.169 Safari/537.36"",""on_chrome"":true,""on_mobile"":false,""language"":""en-US"",""screen_resolution"":[1440,900],""platform"":""MacIntel"",""timezone"":""Europe/Berlin""}","19","2753.3950000013924","","","1558604840228","19","","Frankfurt","[]","Frankfurt","true","true","4871.014999996987"
"","html-voicekey-response","77","441948","0.0-4.73-0.73","3pmxft04s1s1gj1","{""user_agent"":""Mozilla/5.0 (Macintosh; Intel Mac OS X 10_14_4) AppleWebKit/537.36 (KHTML, like Gecko) Chrome/74.0.3729.169 Safari/537.36"",""on_chrome"":true,""on_mobile"":false,""language"":""en-US"",""screen_resolution"":[1440,900],""platform"":""MacIntel"",""timezone"":""Europe/Berlin""}","19","2120.9750000069384","","","1558604845703","11","","Alfeld","[]","Alfeld","true","false","2696.429999996326"
"","html-voicekey-response","78","445316","0.0-4.74-0.74","3pmxft04s1s1gj1","{""user_agent"":""Mozilla/5.0 (Macintosh; Intel Mac OS X 10_14_4) AppleWebKit/537.36 (KHTML, like Gecko) Chrome/74.0.3729.169 Safari/537.36"",""on_chrome"":true,""on_mobile"":false,""language"":""en-US"",""screen_resolution"":[1440,900],""platform"":""MacIntel"",""timezone"":""Europe/Berlin""}","19","2220.7949999954785","","","1558604849003","19","","Frankfurt","[]","Frankfurt","true","false","2762.929999997141"
"","html-voicekey-response","79","450372","0.0-4.75-0.75","3pmxft04s1s1gj1","{""user_agent"":""Mozilla/5.0 (Macintosh; Intel Mac OS X 10_14_4) AppleWebKit/537.36 (KHTML, like Gecko) Chrome/74.0.3729.169 Safari/537.36"",""on_chrome"":true,""on_mobile"":false,""language"":""en-US"",""screen_resolution"":[1440,900],""platform"":""MacIntel"",""timezone"":""Europe/Berlin""}","19","3893.965000004601","","","1558604852372","15","","Nürnberg","[]","Nürnberg","true","false","4451.855000006617"
"","html-voicekey-response","80","452972","0.0-4.76-0.76","3pmxft04s1s1gj1","{""user_agent"":""Mozilla/5.0 (Macintosh; Intel Mac OS X 10_14_4) AppleWebKit/537.36 (KHTML, like Gecko) Chrome/74.0.3729.169 Safari/537.36"",""on_chrome"":true,""on_mobile"":false,""language"":""en-US"",""screen_resolution"":[1440,900],""platform"":""MacIntel"",""timezone"":""Europe/Berlin""}","19","1372.460000007623","","","1558604857427","13","","Chemnitz","[]","Chemnitz","true","false","1997.6650000025984"
"","html-voicekey-response","81","458741","0.0-4.77-0.77","3pmxft04s1s1gj1","{""user_agent"":""Mozilla/5.0 (Macintosh; Intel Mac OS X 10_14_4) AppleWebKit/537.36 (KHTML, like Gecko) Chrome/74.0.3729.169 Safari/537.36"",""on_chrome"":true,""on_mobile"":false,""language"":""en-US"",""screen_resolution"":[1440,900],""platform"":""MacIntel"",""timezone"":""Europe/Berlin""}","19","4737.38000000033","","","1558604860028","20","","Hamburg ","[]","Hamburg ","true","true","5163.345000008121"
"","html-voicekey-response","82","461634","0.0-4.78-0.78","3pmxft04s1s1gj1","{""user_agent"":""Mozilla/5.0 (Macintosh; Intel Mac OS X 10_14_4) AppleWebKit/537.36 (KHTML, like Gecko) Chrome/74.0.3729.169 Safari/537.36"",""on_chrome"":true,""on_mobile"":false,""language"":""en-US"",""screen_resolution"":[1440,900],""platform"":""MacIntel"",""timezone"":""Europe/Berlin""}","19","1679.6699999921025","","","1558604865797","21","","Konstanz","[]","Konstanz","true","true","2288.9649999997346"
"","html-voicekey-response","83","463784","0.0-4.79-0.79","3pmxft04s1s1gj1","{""user_agent"":""Mozilla/5.0 (Macintosh; Intel Mac OS X 10_14_4) AppleWebKit/537.36 (KHTML, like Gecko) Chrome/74.0.3729.169 Safari/537.36"",""on_chrome"":true,""on_mobile"":false,""language"":""en-US"",""screen_resolution"":[1440,900],""platform"":""MacIntel"",""timezone"":""Europe/Berlin""}","19","1053.0900000101888","","","1558604868690","20","","Hamburg ","[]","Hamburg ","true","false","1544.9750000116182"
"","html-voicekey-response","84","466417","0.0-4.80-0.80","3pmxft04s1s1gj1","{""user_agent"":""Mozilla/5.0 (Macintosh; Intel Mac OS X 10_14_4) AppleWebKit/537.36 (KHTML, like Gecko) Chrome/74.0.3729.169 Safari/537.36"",""on_chrome"":true,""on_mobile"":false,""language"":""en-US"",""screen_resolution"":[1440,900],""platform"":""MacIntel"",""timezone"":""Europe/Berlin""}","19","1153.8650000091643","","","1558604870840","21","","Konstanz","[]","Konstanz","true","false","2029.4149999972433"
"","html-voicekey-response","85","469553","0.0-4.81-0.81","3pmxft04s1s1gj1","{""user_agent"":""Mozilla/5.0 (Macintosh; Intel Mac OS X 10_14_4) AppleWebKit/537.36 (KHTML, like Gecko) Chrome/74.0.3729.169 Safari/537.36"",""on_chrome"":true,""on_mobile"":false,""language"":""en-US"",""screen_resolution"":[1440,900],""platform"":""MacIntel"",""timezone"":""Europe/Berlin""}","19","2003.8250000014436","","","1558604873473","22","","Bamberg","[]","Bamberg","true","true","2529.309999998077"
"","html-voicekey-response","86","477242","0.0-4.82-0.82","3pmxft04s1s1gj1","{""user_agent"":""Mozilla/5.0 (Macintosh; Intel Mac OS X 10_14_4) AppleWebKit/537.36 (KHTML, like Gecko) Chrome/74.0.3729.169 Safari/537.36"",""on_chrome"":true,""on_mobile"":false,""language"":""en-US"",""screen_resolution"":[1440,900],""platform"":""MacIntel"",""timezone"":""Europe/Berlin""}","19","6507.029999987781","","","1558604876610","15","","Nürnberg","[]","Nürnberg","true","false","7083.314999996219"
"","html-voicekey-response","87","482592","0.0-4.83-0.83","3pmxft04s1s1gj1","{""user_agent"":""Mozilla/5.0 (Macintosh; Intel Mac OS X 10_14_4) AppleWebKit/537.36 (KHTML, like Gecko) Chrome/74.0.3729.169 Safari/537.36"",""on_chrome"":true,""on_mobile"":false,""language"":""en-US"",""screen_resolution"":[1440,900],""platform"":""MacIntel"",""timezone"":""Europe/Berlin""}","19","4185.285000008507","","","1558604884299","22","","Bamberg","[]","Bamberg","true","false","4744.1300000064075"
"","html-voicekey-response","88","485316","0.0-4.84-0.84","3pmxft04s1s1gj1","{""user_agent"":""Mozilla/5.0 (Macintosh; Intel Mac OS X 10_14_4) AppleWebKit/537.36 (KHTML, like Gecko) Chrome/74.0.3729.169 Safari/537.36"",""on_chrome"":true,""on_mobile"":false,""language"":""en-US"",""screen_resolution"":[1440,900],""platform"":""MacIntel"",""timezone"":""Europe/Berlin""}","19","911.4349999961909","","","1558604889648","5","","Aachen","[]","Aachen","true","false","2120.645000002696"
"","html-voicekey-response","89","490265","0.0-4.85-0.85","3pmxft04s1s1gj1","{""user_agent"":""Mozilla/5.0 (Macintosh; Intel Mac OS X 10_14_4) AppleWebKit/537.36 (KHTML, like Gecko) Chrome/74.0.3729.169 Safari/537.36"",""on_chrome"":true,""on_mobile"":false,""language"":""en-US"",""screen_resolution"":[1440,900],""platform"":""MacIntel"",""timezone"":""Europe/Berlin""}","19","3836.8850000059233","","","1558604892372","23","","Stuttgart","[]","Stuttgart","true","true","4344.519999998738"
"","html-voicekey-response","90","492883","0.0-4.86-0.86","3pmxft04s1s1gj1","{""user_agent"":""Mozilla/5.0 (Macintosh; Intel Mac OS X 10_14_4) AppleWebKit/537.36 (KHTML, like Gecko) Chrome/74.0.3729.169 Safari/537.36"",""on_chrome"":true,""on_mobile"":false,""language"":""en-US"",""screen_resolution"":[1440,900],""platform"":""MacIntel"",""timezone"":""Europe/Berlin""}","19","1505.7999999933877","","","1558604897320","19","","Frankfurt","[]","Frankfurt","true","false","2014.035000000149"
"","html-voicekey-response","91","497780","0.0-4.87-0.87","3pmxft04s1s1gj1","{""user_agent"":""Mozilla/5.0 (Macintosh; Intel Mac OS X 10_14_4) AppleWebKit/537.36 (KHTML, like Gecko) Chrome/74.0.3729.169 Safari/537.36"",""on_chrome"":true,""on_mobile"":false,""language"":""en-US"",""screen_resolution"":[1440,900],""platform"":""MacIntel"",""timezone"":""Europe/Berlin""}","19","3683.639999997313","","","1558604899939","23","","Stuttgart","[]","Stuttgart","true","false","4292.454999987967"
"","html-voicekey-response","92","500813","0.0-4.88-0.88","3pmxft04s1s1gj1","{""user_agent"":""Mozilla/5.0 (Macintosh; Intel Mac OS X 10_14_4) AppleWebKit/537.36 (KHTML, like Gecko) Chrome/74.0.3729.169 Safari/537.36"",""on_chrome"":true,""on_mobile"":false,""language"":""en-US"",""screen_resolution"":[1440,900],""platform"":""MacIntel"",""timezone"":""Europe/Berlin""}","19","1754.6450000025566","","","1558604904835","18","","Forchheim","[]","Forchheim","true","false","2430.305000001681"
"","html-voicekey-response","93","506630","0.0-4.89-0.89","3pmxft04s1s1gj1","{""user_agent"":""Mozilla/5.0 (Macintosh; Intel Mac OS X 10_14_4) AppleWebKit/537.36 (KHTML, like Gecko) Chrome/74.0.3729.169 Safari/537.36"",""on_chrome"":true,""on_mobile"":false,""language"":""en-US"",""screen_resolution"":[1440,900],""platform"":""MacIntel"",""timezone"":""Europe/Berlin""}","19","4736.514999991259","","","1558604907870","8","","Gotha","[]","Gotha","true","false","5211.509999993723"
"","html-voicekey-response","94","508920","0.0-4.90-0.90","3pmxft04s1s1gj1","{""user_agent"":""Mozilla/5.0 (Macintosh; Intel Mac OS X 10_14_4) AppleWebKit/537.36 (KHTML, like Gecko) Chrome/74.0.3729.169 Safari/537.36"",""on_chrome"":true,""on_mobile"":false,""language"":""en-US"",""screen_resolution"":[1440,900],""platform"":""MacIntel"",""timezone"":""Europe/Berlin""}","19","1144.10500000834","","","1558604913686","15","","Nürnberg","[]","Nürnberg","true","false","1685.5599999980768"
"","html-voicekey-response","95","518319","0.0-4.91-0.91","3pmxft04s1s1gj1","{""user_agent"":""Mozilla/5.0 (Macintosh; Intel Mac OS X 10_14_4) AppleWebKit/537.36 (KHTML, like Gecko) Chrome/74.0.3729.169 Safari/537.36"",""on_chrome"":true,""on_mobile"":false,""language"":""en-US"",""screen_resolution"":[1440,900],""platform"":""MacIntel"",""timezone"":""Europe/Berlin""}","19","4288.094999990635","","","1558604915975","21","","","[]","Konstanz","false","false","5396.404999992228"
"","html-voicekey-response","96","520531","0.0-4.92-0.92","3pmxft04s1s1gj1","{""user_agent"":""Mozilla/5.0 (Macintosh; Intel Mac OS X 10_14_4) AppleWebKit/537.36 (KHTML, like Gecko) Chrome/74.0.3729.169 Safari/537.36"",""on_chrome"":true,""on_mobile"":false,""language"":""en-US"",""screen_resolution"":[1440,900],""platform"":""MacIntel"",""timezone"":""Europe/Berlin""}","19","1021.2150000096066","","","1558604925375","20","","Hamburg ","[]","Hamburg ","true","false","1607.7000000077533"
"","html-voicekey-response","97","525197","0.0-4.93-0.93","3pmxft04s1s1gj1","{""user_agent"":""Mozilla/5.0 (Macintosh; Intel Mac OS X 10_14_4) AppleWebKit/537.36 (KHTML, like Gecko) Chrome/74.0.3729.169 Safari/537.36"",""on_chrome"":true,""on_mobile"":false,""language"":""en-US"",""screen_resolution"":[1440,900],""platform"":""MacIntel"",""timezone"":""Europe/Berlin""}","19","3370.019999996503","","","1558604927587","11","","Alfeld","[]","Alfeld","true","false","4062.374999994063"
"","html-voicekey-response","98","534713","0.0-4.94-0.94","3pmxft04s1s1gj1","{""user_agent"":""Mozilla/5.0 (Macintosh; Intel Mac OS X 10_14_4) AppleWebKit/537.36 (KHTML, like Gecko) Chrome/74.0.3729.169 Safari/537.36"",""on_chrome"":true,""on_mobile"":false,""language"":""en-US"",""screen_resolution"":[1440,900],""platform"":""MacIntel"",""timezone"":""Europe/Berlin""}","19","4353.465000001806","","","1558604932253","8","","","[]","Gotha","false","false","5512.22499999858"
"","html-voicekey-response","99","537938","0.0-4.95-0.95","3pmxft04s1s1gj1","{""user_agent"":""Mozilla/5.0 (Macintosh; Intel Mac OS X 10_14_4) AppleWebKit/537.36 (KHTML, like Gecko) Chrome/74.0.3729.169 Safari/537.36"",""on_chrome"":true,""on_mobile"":false,""language"":""en-US"",""screen_resolution"":[1440,900],""platform"":""MacIntel"",""timezone"":""Europe/Berlin""}","19","1944.1650000024588","","","1558604941770","22","","Bamberg","[]","Bamberg","true","false","2620.8349999942584"
"","html-voicekey-response","100","541406","0.0-4.96-0.96","3pmxft04s1s1gj1","{""user_agent"":""Mozilla/5.0 (Macintosh; Intel Mac OS X 10_14_4) AppleWebKit/537.36 (KHTML, like Gecko) Chrome/74.0.3729.169 Safari/537.36"",""on_chrome"":true,""on_mobile"":false,""language"":""en-US"",""screen_resolution"":[1440,900],""platform"":""MacIntel"",""timezone"":""Europe/Berlin""}","19","2236.604999992624","","","1558604944994","8","","Gotha","[]","Gotha","true","false","2862.1649999986403"
"","html-voicekey-response","101","545863","0.0-4.97-0.97","3pmxft04s1s1gj1","{""user_agent"":""Mozilla/5.0 (Macintosh; Intel Mac OS X 10_14_4) AppleWebKit/537.36 (KHTML, like Gecko) Chrome/74.0.3729.169 Safari/537.36"",""on_chrome"":true,""on_mobile"":false,""language"":""en-US"",""screen_resolution"":[1440,900],""platform"":""MacIntel"",""timezone"":""Europe/Berlin""}","19","3443.4649999983144","","","1558604948463","13","","Chemnitz","[]","Chemnitz","true","false","3851.9649999943795"
"","html-voicekey-response","102","549496","0.0-4.98-0.98","3pmxft04s1s1gj1","{""user_agent"":""Mozilla/5.0 (Macintosh; Intel Mac OS X 10_14_4) AppleWebKit/537.36 (KHTML, like Gecko) Chrome/74.0.3729.169 Safari/537.36"",""on_chrome"":true,""on_mobile"":false,""language"":""en-US"",""screen_resolution"":[1440,900],""platform"":""MacIntel"",""timezone"":""Europe/Berlin""}","19","2519.49499999485","","","1558604952920","23","","Stuttgart","[]","Stuttgart","true","false","3026.9050000060815"
"","html-voicekey-response","103","552713","0.0-4.99-0.99","3pmxft04s1s1gj1","{""user_agent"":""Mozilla/5.0 (Macintosh; Intel Mac OS X 10_14_4) AppleWebKit/537.36 (KHTML, like Gecko) Chrome/74.0.3729.169 Safari/537.36"",""on_chrome"":true,""on_mobile"":false,""language"":""en-US"",""screen_resolution"":[1440,900],""platform"":""MacIntel"",""timezone"":""Europe/Berlin""}","19","1920.2800000001212","","","1558604956552","3","","Ingolstadt","[]","Ingolstadt","true","false","2611.994999999297"
"","html-voicekey-response","104","561837","0.0-4.100-0.100","3pmxft04s1s1gj1","{""user_agent"":""Mozilla/5.0 (Macintosh; Intel Mac OS X 10_14_4) AppleWebKit/537.36 (KHTML, like Gecko) Chrome/74.0.3729.169 Safari/537.36"",""on_chrome"":true,""on_mobile"":false,""language"":""en-US"",""screen_resolution"":[1440,900],""platform"":""MacIntel"",""timezone"":""Europe/Berlin""}","19","4126.4499999905","","","1558604959770","21","","","[]","Konstanz","false","false","5119.6299999865005"
"","html-voicekey-response","105","568846","0.0-4.101-0.101","3pmxft04s1s1gj1","{""user_agent"":""Mozilla/5.0 (Macintosh; Intel Mac OS X 10_14_4) AppleWebKit/537.36 (KHTML, like Gecko) Chrome/74.0.3729.169 Safari/537.36"",""on_chrome"":true,""on_mobile"":false,""language"":""en-US"",""screen_resolution"":[1440,900],""platform"":""MacIntel"",""timezone"":""Europe/Berlin""}","19","5636.330000002845","","","1558604968894","15","","Nürnberg","[]","Nürnberg","true","false","6404.309999998077"
"","html-voicekey-response","106","571329","0.0-4.102-0.102","3pmxft04s1s1gj1","{""user_agent"":""Mozilla/5.0 (Macintosh; Intel Mac OS X 10_14_4) AppleWebKit/537.36 (KHTML, like Gecko) Chrome/74.0.3729.169 Safari/537.36"",""on_chrome"":true,""on_mobile"":false,""language"":""en-US"",""screen_resolution"":[1440,900],""platform"":""MacIntel"",""timezone"":""Europe/Berlin""}","19","1288.4200000060723","","","1558604975901","8","","Gotha","[]","Gotha","true","false","1879.960000005667"
"","html-voicekey-response","107","574362","0.0-4.103-0.103","3pmxft04s1s1gj1","{""user_agent"":""Mozilla/5.0 (Macintosh; Intel Mac OS X 10_14_4) AppleWebKit/537.36 (KHTML, like Gecko) Chrome/74.0.3729.169 Safari/537.36"",""on_chrome"":true,""on_mobile"":false,""language"":""en-US"",""screen_resolution"":[1440,900],""platform"":""MacIntel"",""timezone"":""Europe/Berlin""}","19","1703.700000007148","","","1558604978385","4","","Würzburg","[]","Würzburg","true","false","2429.0750000072876"
"","html-voicekey-response","108","576755","0.0-4.104-0.104","3pmxft04s1s1gj1","{""user_agent"":""Mozilla/5.0 (Macintosh; Intel Mac OS X 10_14_4) AppleWebKit/537.36 (KHTML, like Gecko) Chrome/74.0.3729.169 Safari/537.36"",""on_chrome"":true,""on_mobile"":false,""language"":""en-US"",""screen_resolution"":[1440,900],""platform"":""MacIntel"",""timezone"":""Europe/Berlin""}","19","1061.084999988298","","","1558604981419","10","","Heidelberg","[]","Heidelberg","true","false","1787.2299999871757"
"","html-voicekey-response","109","590355","0.0-4.105-0.105","3pmxft04s1s1gj1","{""user_agent"":""Mozilla/5.0 (Macintosh; Intel Mac OS X 10_14_4) AppleWebKit/537.36 (KHTML, like Gecko) Chrome/74.0.3729.169 Safari/537.36"",""on_chrome"":true,""on_mobile"":false,""language"":""en-US"",""screen_resolution"":[1440,900],""platform"":""MacIntel"",""timezone"":""Europe/Berlin""}","19","7734.659999996284","","","1558604983812","15","","","[]","Nürnberg","false","false","9592.940000002272"
"","html-voicekey-response","110","593328","0.0-4.106-0.106","3pmxft04s1s1gj1","{""user_agent"":""Mozilla/5.0 (Macintosh; Intel Mac OS X 10_14_4) AppleWebKit/537.36 (KHTML, like Gecko) Chrome/74.0.3729.169 Safari/537.36"",""on_chrome"":true,""on_mobile"":false,""language"":""en-US"",""screen_resolution"":[1440,900],""platform"":""MacIntel"",""timezone"":""Europe/Berlin""}","19","1675.534999996517","","","1558604997412","21","","Konstanz","[]","Konstanz","true","false","2368.124999993597"
"","html-voicekey-response","111","598444","0.0-4.107-0.107","3pmxft04s1s1gj1","{""user_agent"":""Mozilla/5.0 (Macintosh; Intel Mac OS X 10_14_4) AppleWebKit/537.36 (KHTML, like Gecko) Chrome/74.0.3729.169 Safari/537.36"",""on_chrome"":true,""on_mobile"":false,""language"":""en-US"",""screen_resolution"":[1440,900],""platform"":""MacIntel"",""timezone"":""Europe/Berlin""}","19","3950.055000002822","","","1558605000387","15","","Nürnberg","[]","Nürnberg","true","false","4509.315000002971"
"","html-voicekey-response","112","601439","0.0-4.108-0.108","3pmxft04s1s1gj1","{""user_agent"":""Mozilla/5.0 (Macintosh; Intel Mac OS X 10_14_4) AppleWebKit/537.36 (KHTML, like Gecko) Chrome/74.0.3729.169 Safari/537.36"",""on_chrome"":true,""on_mobile"":false,""language"":""en-US"",""screen_resolution"":[1440,900],""platform"":""MacIntel"",""timezone"":""Europe/Berlin""}","19","1762.6700000053738","","","1558605005502","11","","Alfeld","[]","Alfeld","true","false","2389.1250000015134"
"","html-voicekey-response","113","604222","0.0-4.109-0.109","3pmxft04s1s1gj1","{""user_agent"":""Mozilla/5.0 (Macintosh; Intel Mac OS X 10_14_4) AppleWebKit/537.36 (KHTML, like Gecko) Chrome/74.0.3729.169 Safari/537.36"",""on_chrome"":true,""on_mobile"":false,""language"":""en-US"",""screen_resolution"":[1440,900],""platform"":""MacIntel"",""timezone"":""Europe/Berlin""}","19","1419.0349999933737","","","1558605008496","6","","Dresden","[]","Dresden","true","false","2178.4849999967264"
"","html-voicekey-response","114","607755","0.0-4.110-0.110","3pmxft04s1s1gj1","{""user_agent"":""Mozilla/5.0 (Macintosh; Intel Mac OS X 10_14_4) AppleWebKit/537.36 (KHTML, like Gecko) Chrome/74.0.3729.169 Safari/537.36"",""on_chrome"":true,""on_mobile"":false,""language"":""en-US"",""screen_resolution"":[1440,900],""platform"":""MacIntel"",""timezone"":""Europe/Berlin""}","19","2384.8200000009733","","","1558605011280","12","","Dessau","[]","Dessau","true","false","2927.689999996801"
"","html-voicekey-response","115","611829","0.0-4.111-0.111","3pmxft04s1s1gj1","{""user_agent"":""Mozilla/5.0 (Macintosh; Intel Mac OS X 10_14_4) AppleWebKit/537.36 (KHTML, like Gecko) Chrome/74.0.3729.169 Safari/537.36"",""on_chrome"":true,""on_mobile"":false,""language"":""en-US"",""screen_resolution"":[1440,900],""platform"":""MacIntel"",""timezone"":""Europe/Berlin""}","19","2952.2950000044425","","","1558605014813","8","","Gotha","[]","Gotha","true","false","3468.6450000008335"
"","html-voicekey-response","116","614262","0.0-4.112-0.112","3pmxft04s1s1gj1","{""user_agent"":""Mozilla/5.0 (Macintosh; Intel Mac OS X 10_14_4) AppleWebKit/537.36 (KHTML, like Gecko) Chrome/74.0.3729.169 Safari/537.36"",""on_chrome"":true,""on_mobile"":false,""language"":""en-US"",""screen_resolution"":[1440,900],""platform"":""MacIntel"",""timezone"":""Europe/Berlin""}","19","1385.0800000016811","","","1558605018887","15","","Nürnberg","[]","Nürnberg","true","false","1827.8449999925215"
"","html-voicekey-response","117","616663","0.0-4.113-0.113","3pmxft04s1s1gj1","{""user_agent"":""Mozilla/5.0 (Macintosh; Intel Mac OS X 10_14_4) AppleWebKit/537.36 (KHTML, like Gecko) Chrome/74.0.3729.169 Safari/537.36"",""on_chrome"":true,""on_mobile"":false,""language"":""en-US"",""screen_resolution"":[1440,900],""platform"":""MacIntel"",""timezone"":""Europe/Berlin""}","19","1336.3550000011223","","","1558605021319","7","","Erfurt","[]","Erfurt","true","false","1795.7150000002002"
"","html-voicekey-response","118","619530","0.0-4.114-0.114","3pmxft04s1s1gj1","{""user_agent"":""Mozilla/5.0 (Macintosh; Intel Mac OS X 10_14_4) AppleWebKit/537.36 (KHTML, like Gecko) Chrome/74.0.3729.169 Safari/537.36"",""on_chrome"":true,""on_mobile"":false,""language"":""en-US"",""screen_resolution"":[1440,900],""platform"":""MacIntel"",""timezone"":""Europe/Berlin""}","19","1835.0200000075624","","","1558605023721","9","","München","[]","München","true","false","2259.7700000042096"
"","html-voicekey-response","119","621939","0.0-4.115-0.115","3pmxft04s1s1gj1","{""user_agent"":""Mozilla/5.0 (Macintosh; Intel Mac OS X 10_14_4) AppleWebKit/537.36 (KHTML, like Gecko) Chrome/74.0.3729.169 Safari/537.36"",""on_chrome"":true,""on_mobile"":false,""language"":""en-US"",""screen_resolution"":[1440,900],""platform"":""MacIntel"",""timezone"":""Europe/Berlin""}","19","1345.1100000036881","","","1558605026587","14","","Potsdam","[]","Potsdam","true","false","1803.635000003851"
"","html-voicekey-response","120","624856","0.0-4.116-0.116","3pmxft04s1s1gj1","{""user_agent"":""Mozilla/5.0 (Macintosh; Intel Mac OS X 10_14_4) AppleWebKit/537.36 (KHTML, like Gecko) Chrome/74.0.3729.169 Safari/537.36"",""on_chrome"":true,""on_mobile"":false,""language"":""en-US"",""screen_resolution"":[1440,900],""platform"":""MacIntel"",""timezone"":""Europe/Berlin""}","19","1885.130000004056","","","1558605028997","24","","Köln","[]","Köln","true","true","2310.635000001639"
"","html-voicekey-response","121","628155","0.0-4.117-0.117","3pmxft04s1s1gj1","{""user_agent"":""Mozilla/5.0 (Macintosh; Intel Mac OS X 10_14_4) AppleWebKit/537.36 (KHTML, like Gecko) Chrome/74.0.3729.169 Safari/537.36"",""on_chrome"":true,""on_mobile"":false,""language"":""en-US"",""screen_resolution"":[1440,900],""platform"":""MacIntel"",""timezone"":""Europe/Berlin""}","19","218.61000000520144","","","1558605031913","13","","Chemnitz","[]","Chemnitz","true","false","2694.100000007893"
"","html-voicekey-response","122","630916","0.0-4.118-0.118","3pmxft04s1s1gj1","{""user_agent"":""Mozilla/5.0 (Macintosh; Intel Mac OS X 10_14_4) AppleWebKit/537.36 (KHTML, like Gecko) Chrome/74.0.3729.169 Safari/537.36"",""on_chrome"":true,""on_mobile"":false,""language"":""en-US"",""screen_resolution"":[1440,900],""platform"":""MacIntel"",""timezone"":""Europe/Berlin""}","19","1752.0750000056346","","","1558605035213","24","","Köln","[]","Köln","true","false","2154.775000002701"
"","html-voicekey-response","123","633483","0.0-4.119-0.119","3pmxft04s1s1gj1","{""user_agent"":""Mozilla/5.0 (Macintosh; Intel Mac OS X 10_14_4) AppleWebKit/537.36 (KHTML, like Gecko) Chrome/74.0.3729.169 Safari/537.36"",""on_chrome"":true,""on_mobile"":false,""language"":""en-US"",""screen_resolution"":[1440,900],""platform"":""MacIntel"",""timezone"":""Europe/Berlin""}","19","1351.1800000067801","","","1558605037974","23","","Stuttgart","[]","Stuttgart","true","false","1960.3950000018813"
"","html-voicekey-response","124","636699","0.0-4.120-0.120","3pmxft04s1s1gj1","{""user_agent"":""Mozilla/5.0 (Macintosh; Intel Mac OS X 10_14_4) AppleWebKit/537.36 (KHTML, like Gecko) Chrome/74.0.3729.169 Safari/537.36"",""on_chrome"":true,""on_mobile"":false,""language"":""en-US"",""screen_resolution"":[1440,900],""platform"":""MacIntel"",""timezone"":""Europe/Berlin""}","19","2100.5300000050106","","","1558605040540","15","","Nürnberg","[]","Nürnberg","true","false","2611.529999994673"
"","html-voicekey-response","125","646366","0.0-4.121-0.121","3pmxft04s1s1gj1","{""user_agent"":""Mozilla/5.0 (Macintosh; Intel Mac OS X 10_14_4) AppleWebKit/537.36 (KHTML, like Gecko) Chrome/74.0.3729.169 Safari/537.36"",""on_chrome"":true,""on_mobile"":false,""language"":""en-US"",""screen_resolution"":[1440,900],""platform"":""MacIntel"",""timezone"":""Europe/Berlin""}","19","3950.005000000447","","","1558605043758","8","","","[]","Gotha","false","false","5658.129999996163"
"","html-voicekey-response","126","648938","0.0-4.122-0.122","3pmxft04s1s1gj1","{""user_agent"":""Mozilla/5.0 (Macintosh; Intel Mac OS X 10_14_4) AppleWebKit/537.36 (KHTML, like Gecko) Chrome/74.0.3729.169 Safari/537.36"",""on_chrome"":true,""on_mobile"":false,""language"":""en-US"",""screen_resolution"":[1440,900],""platform"":""MacIntel"",""timezone"":""Europe/Berlin""}","19","1357.4750000060071","","","1558605053424","21","","Konstanz","[]","Konstanz","true","false","1965.7699999952456"
"","html-voicekey-response","127","654721","0.0-4.123-0.123","3pmxft04s1s1gj1","{""user_agent"":""Mozilla/5.0 (Macintosh; Intel Mac OS X 10_14_4) AppleWebKit/537.36 (KHTML, like Gecko) Chrome/74.0.3729.169 Safari/537.36"",""on_chrome"":true,""on_mobile"":false,""language"":""en-US"",""screen_resolution"":[1440,900],""platform"":""MacIntel"",""timezone"":""Europe/Berlin""}","19","1068.4299999937416","","","1558605055996","8","","","[]","Gotha","false","false","1777.105000001029"
"","html-voicekey-response","128","660266","0.0-4.124-0.124","3pmxft04s1s1gj1","{""user_agent"":""Mozilla/5.0 (Macintosh; Intel Mac OS X 10_14_4) AppleWebKit/537.36 (KHTML, like Gecko) Chrome/74.0.3729.169 Safari/537.36"",""on_chrome"":true,""on_mobile"":false,""language"":""en-US"",""screen_resolution"":[1440,900],""platform"":""MacIntel"",""timezone"":""Europe/Berlin""}","19","4285.429999997932","","","1558605061779","18","","Forchheim","[]","Forchheim","true","false","4939.480000000913"
"","html-voicekey-response","129","663849","0.0-4.125-0.125","3pmxft04s1s1gj1","{""user_agent"":""Mozilla/5.0 (Macintosh; Intel Mac OS X 10_14_4) AppleWebKit/537.36 (KHTML, like Gecko) Chrome/74.0.3729.169 Safari/537.36"",""on_chrome"":true,""on_mobile"":false,""language"":""en-US"",""screen_resolution"":[1440,900],""platform"":""MacIntel"",""timezone"":""Europe/Berlin""}","19","2018.1850000024774","","","1558605067325","15","","Nürnberg","[]","Nürnberg","true","false","2975.814999997965"
"","html-voicekey-response","130","667084","0.0-4.126-0.126","3pmxft04s1s1gj1","{""user_agent"":""Mozilla/5.0 (Macintosh; Intel Mac OS X 10_14_4) AppleWebKit/537.36 (KHTML, like Gecko) Chrome/74.0.3729.169 Safari/537.36"",""on_chrome"":true,""on_mobile"":false,""language"":""en-US"",""screen_resolution"":[1440,900],""platform"":""MacIntel"",""timezone"":""Europe/Berlin""}","19","2201.325000010757","","","1558605070908","25","","Osnabrück","[]","Osnabrück","true","true","2626.4000000082888"
"","html-voicekey-response","131","669957","0.0-4.127-0.127","3pmxft04s1s1gj1","{""user_agent"":""Mozilla/5.0 (Macintosh; Intel Mac OS X 10_14_4) AppleWebKit/537.36 (KHTML, like Gecko) Chrome/74.0.3729.169 Safari/537.36"",""on_chrome"":true,""on_mobile"":false,""language"":""en-US"",""screen_resolution"":[1440,900],""platform"":""MacIntel"",""timezone"":""Europe/Berlin""}","19","1808.3350000031992","","","1558605074143","26","","Freiburg","[]","Freiburg","true","true","2266.9849999947473"
"","html-voicekey-response","132","672408","0.0-4.128-0.128","3pmxft04s1s1gj1","{""user_agent"":""Mozilla/5.0 (Macintosh; Intel Mac OS X 10_14_4) AppleWebKit/537.36 (KHTML, like Gecko) Chrome/74.0.3729.169 Safari/537.36"",""on_chrome"":true,""on_mobile"":false,""language"":""en-US"",""screen_resolution"":[1440,900],""platform"":""MacIntel"",""timezone"":""Europe/Berlin""}","19","1334.9449999894482","","","1558605077016","25","","Osnabrück","[]","Osnabrück","true","false","1844.1800000000512"
"","html-voicekey-response","133","681676","0.0-4.129-0.129","3pmxft04s1s1gj1","{""user_agent"":""Mozilla/5.0 (Macintosh; Intel Mac OS X 10_14_4) AppleWebKit/537.36 (KHTML, like Gecko) Chrome/74.0.3729.169 Safari/537.36"",""on_chrome"":true,""on_mobile"":false,""language"":""en-US"",""screen_resolution"":[1440,900],""platform"":""MacIntel"",""timezone"":""Europe/Berlin""}","19","4683.25500000522","","","1558605079467","26","","","[]","Freiburg","false","false","5259.0499999932945"
"","html-voicekey-response","134","685803","0.0-4.130-0.130","3pmxft04s1s1gj1","{""user_agent"":""Mozilla/5.0 (Macintosh; Intel Mac OS X 10_14_4) AppleWebKit/537.36 (KHTML, like Gecko) Chrome/74.0.3729.169 Safari/537.36"",""on_chrome"":true,""on_mobile"":false,""language"":""en-US"",""screen_resolution"":[1440,900],""platform"":""MacIntel"",""timezone"":""Europe/Berlin""}","19","Infinity","","","1558605088734","8","","Gotha","[]","Gotha","true","false","3520.52000000549"
"","html-voicekey-response","135","689037","0.0-4.131-0.131","3pmxft04s1s1gj1","{""user_agent"":""Mozilla/5.0 (Macintosh; Intel Mac OS X 10_14_4) AppleWebKit/537.36 (KHTML, like Gecko) Chrome/74.0.3729.169 Safari/537.36"",""on_chrome"":true,""on_mobile"":false,""language"":""en-US"",""screen_resolution"":[1440,900],""platform"":""MacIntel"",""timezone"":""Europe/Berlin""}","19","2349.7450000084705","","","1558605092862","24","","Köln","[]","Köln","true","false","2624.8800000030315"
"","html-voicekey-response","136","693479","0.0-4.132-0.132","3pmxft04s1s1gj1","{""user_agent"":""Mozilla/5.0 (Macintosh; Intel Mac OS X 10_14_4) AppleWebKit/537.36 (KHTML, like Gecko) Chrome/74.0.3729.169 Safari/537.36"",""on_chrome"":true,""on_mobile"":false,""language"":""en-US"",""screen_resolution"":[1440,900],""platform"":""MacIntel"",""timezone"":""Europe/Berlin""}","19","3427.189999996545","","","1558605096095","8","","Gotha","[]","Gotha","true","false","3836.269999999786"
"","html-voicekey-response","137","695745","0.0-4.133-0.133","3pmxft04s1s1gj1","{""user_agent"":""Mozilla/5.0 (Macintosh; Intel Mac OS X 10_14_4) AppleWebKit/537.36 (KHTML, like Gecko) Chrome/74.0.3729.169 Safari/537.36"",""on_chrome"":true,""on_mobile"":false,""language"":""en-US"",""screen_resolution"":[1440,900],""platform"":""MacIntel"",""timezone"":""Europe/Berlin""}","19","1184.929999997467","","","1558605100537","17","","Leipzig","[]","Leipzig","true","false","1659.029999995255"
"","html-voicekey-response","138","698696","0.0-4.134-0.134","3pmxft04s1s1gj1","{""user_agent"":""Mozilla/5.0 (Macintosh; Intel Mac OS X 10_14_4) AppleWebKit/537.36 (KHTML, like Gecko) Chrome/74.0.3729.169 Safari/537.36"",""on_chrome"":true,""on_mobile"":false,""language"":""en-US"",""screen_resolution"":[1440,900],""platform"":""MacIntel"",""timezone"":""Europe/Berlin""}","19","1734.500000000326","","","1558605102804","8","","Gotha","[]","Gotha","true","false","2344.0499999996973"
"","html-voicekey-response","139","701169","0.0-4.135-0.135","3pmxft04s1s1gj1","{""user_agent"":""Mozilla/5.0 (Macintosh; Intel Mac OS X 10_14_4) AppleWebKit/537.36 (KHTML, like Gecko) Chrome/74.0.3729.169 Safari/537.36"",""on_chrome"":true,""on_mobile"":false,""language"":""en-US"",""screen_resolution"":[1440,900],""platform"":""MacIntel"",""timezone"":""Europe/Berlin""}","19","1433.1200000104495","","","1558605105755","16","","Schwangau","[]","Schwangau","true","false","1866.455000010319"
"","html-voicekey-response","140","704170","0.0-4.136-0.136","3pmxft04s1s1gj1","{""user_agent"":""Mozilla/5.0 (Macintosh; Intel Mac OS X 10_14_4) AppleWebKit/537.36 (KHTML, like Gecko) Chrome/74.0.3729.169 Safari/537.36"",""on_chrome"":true,""on_mobile"":false,""language"":""en-US"",""screen_resolution"":[1440,900],""platform"":""MacIntel"",""timezone"":""Europe/Berlin""}","19","1884.9649999991293","","","1558605108229","15","","Nürnberg","[]","Nürnberg","true","false","2393.5550000023795"
"","html-voicekey-response","141","706669","0.0-4.137-0.137","3pmxft04s1s1gj1","{""user_agent"":""Mozilla/5.0 (Macintosh; Intel Mac OS X 10_14_4) AppleWebKit/537.36 (KHTML, like Gecko) Chrome/74.0.3729.169 Safari/537.36"",""on_chrome"":true,""on_mobile"":false,""language"":""en-US"",""screen_resolution"":[1440,900],""platform"":""MacIntel"",""timezone"":""Europe/Berlin""}","19","1433.6299999939279","","","1558605111230","8","","Gotha","[]","Gotha","true","false","1891.0349999932805"
"","html-voicekey-response","142","709602","0.0-4.138-0.138","3pmxft04s1s1gj1","{""user_agent"":""Mozilla/5.0 (Macintosh; Intel Mac OS X 10_14_4) AppleWebKit/537.36 (KHTML, like Gecko) Chrome/74.0.3729.169 Safari/537.36"",""on_chrome"":true,""on_mobile"":false,""language"":""en-US"",""screen_resolution"":[1440,900],""platform"":""MacIntel"",""timezone"":""Europe/Berlin""}","19","1833.2749999916182","","","1558605113729","27","","Tübingen","[]","Tübingen","true","true","2326.024999987567"
"","html-voicekey-response","143","712462","0.0-4.139-0.139","3pmxft04s1s1gj1","{""user_agent"":""Mozilla/5.0 (Macintosh; Intel Mac OS X 10_14_4) AppleWebKit/537.36 (KHTML, like Gecko) Chrome/74.0.3729.169 Safari/537.36"",""on_chrome"":true,""on_mobile"":false,""language"":""en-US"",""screen_resolution"":[1440,900],""platform"":""MacIntel"",""timezone"":""Europe/Berlin""}","19","1443.135000003013","","","1558605116662","28","","Regensburg","[]","Regensburg","true","true","2252.1149999956833"
"","html-voicekey-response","144","722395","0.0-4.140-0.140","3pmxft04s1s1gj1","{""user_agent"":""Mozilla/5.0 (Macintosh; Intel Mac OS X 10_14_4) AppleWebKit/537.36 (KHTML, like Gecko) Chrome/74.0.3729.169 Safari/537.36"",""on_chrome"":true,""on_mobile"":false,""language"":""en-US"",""screen_resolution"":[1440,900],""platform"":""MacIntel"",""timezone"":""Europe/Berlin""}","19","4467.299999998277","","","1558605119521","27","","","[]","Tübingen","false","false","5925.350000004983"
"","html-voicekey-response","145","729774","0.0-4.141-0.141","3pmxft04s1s1gj1","{""user_agent"":""Mozilla/5.0 (Macintosh; Intel Mac OS X 10_14_4) AppleWebKit/537.36 (KHTML, like Gecko) Chrome/74.0.3729.169 Safari/537.36"",""on_chrome"":true,""on_mobile"":false,""language"":""en-US"",""screen_resolution"":[1440,900],""platform"":""MacIntel"",""timezone"":""Europe/Berlin""}","19","750.4649999990128","","","1558605129454","28","","","[]","Regensburg","false","false","3371.979999996256"
"","html-voicekey-response","146","731939","0.0-4.142-0.142","3pmxft04s1s1gj1","{""user_agent"":""Mozilla/5.0 (Macintosh; Intel Mac OS X 10_14_4) AppleWebKit/537.36 (KHTML, like Gecko) Chrome/74.0.3729.169 Safari/537.36"",""on_chrome"":true,""on_mobile"":false,""language"":""en-US"",""screen_resolution"":[1440,900],""platform"":""MacIntel"",""timezone"":""Europe/Berlin""}","19","1184.4650000073948","","","1558605136832","8","","Gotha","[]","Gotha","true","false","1559.0700000029756"
"","html-voicekey-response","147","734006","0.0-4.143-0.143","3pmxft04s1s1gj1","{""user_agent"":""Mozilla/5.0 (Macintosh; Intel Mac OS X 10_14_4) AppleWebKit/537.36 (KHTML, like Gecko) Chrome/74.0.3729.169 Safari/537.36"",""on_chrome"":true,""on_mobile"":false,""language"":""en-US"",""screen_resolution"":[1440,900],""platform"":""MacIntel"",""timezone"":""Europe/Berlin""}","19","1017.4250000071246","","","1558605138999","25","","Osnabrück","[]","Osnabrück","true","false","1458.7500000052387"
"","html-voicekey-response","148","740782","0.0-4.144-0.144","3pmxft04s1s1gj1","{""user_agent"":""Mozilla/5.0 (Macintosh; Intel Mac OS X 10_14_4) AppleWebKit/537.36 (KHTML, like Gecko) Chrome/74.0.3729.169 Safari/537.36"",""on_chrome"":true,""on_mobile"":false,""language"":""en-US"",""screen_resolution"":[1440,900],""platform"":""MacIntel"",""timezone"":""Europe/Berlin""}","19","5709.444999994803","","","1558605141065","26","","Freiburg","[]","Freiburg","true","false","6168.294999995851"
"","html-voicekey-response","149","743182","0.0-4.145-0.145","3pmxft04s1s1gj1","{""user_agent"":""Mozilla/5.0 (Macintosh; Intel Mac OS X 10_14_4) AppleWebKit/537.36 (KHTML, like Gecko) Chrome/74.0.3729.169 Safari/537.36"",""on_chrome"":true,""on_mobile"":false,""language"":""en-US"",""screen_resolution"":[1440,900],""platform"":""MacIntel"",""timezone"":""Europe/Berlin""}","19","1283.285000006645","","","1558605147841","21","","Konstanz","[]","Konstanz","true","false","1792.5600000016857"
"","html-voicekey-response","150","746056","0.0-4.146-0.146","3pmxft04s1s1gj1","{""user_agent"":""Mozilla/5.0 (Macintosh; Intel Mac OS X 10_14_4) AppleWebKit/537.36 (KHTML, like Gecko) Chrome/74.0.3729.169 Safari/537.36"",""on_chrome"":true,""on_mobile"":false,""language"":""en-US"",""screen_resolution"":[1440,900],""platform"":""MacIntel"",""timezone"":""Europe/Berlin""}","19","1682.4900000008988","","","1558605150242","8","","Gotha","[]","Gotha","true","false","2265.9549999953015"
"","html-voicekey-response","151","749156","0.0-4.147-0.147","3pmxft04s1s1gj1","{""user_agent"":""Mozilla/5.0 (Macintosh; Intel Mac OS X 10_14_4) AppleWebKit/537.36 (KHTML, like Gecko) Chrome/74.0.3729.169 Safari/537.36"",""on_chrome"":true,""on_mobile"":false,""language"":""en-US"",""screen_resolution"":[1440,900],""platform"":""MacIntel"",""timezone"":""Europe/Berlin""}","19","1901.7099999999396","","","1558605153115","29","","Jena","[]","Jena","true","true","2492.7650000026915"
"","html-voicekey-response","152","754308","0.0-4.148-0.148","3pmxft04s1s1gj1","{""user_agent"":""Mozilla/5.0 (Macintosh; Intel Mac OS X 10_14_4) AppleWebKit/537.36 (KHTML, like Gecko) Chrome/74.0.3729.169 Safari/537.36"",""on_chrome"":true,""on_mobile"":false,""language"":""en-US"",""screen_resolution"":[1440,900],""platform"":""MacIntel"",""timezone"":""Europe/Berlin""}","19","4050.8349999962143","","","1558605156214","30","","Bremen","[]","Bremen","true","true","4543.914999987464"
"","html-voicekey-response","153","766263","0.0-4.149-0.149","3pmxft04s1s1gj1","{""user_agent"":""Mozilla/5.0 (Macintosh; Intel Mac OS X 10_14_4) AppleWebKit/537.36 (KHTML, like Gecko) Chrome/74.0.3729.169 Safari/537.36"",""on_chrome"":true,""on_mobile"":false,""language"":""en-US"",""screen_resolution"":[1440,900],""platform"":""MacIntel"",""timezone"":""Europe/Berlin""}","19","7355.474999998323","","","1558605161367","29","","","[]","Jena","false","false","7947.925000000396"
"","html-voicekey-response","154","769224","0.0-4.150-0.150","3pmxft04s1s1gj1","{""user_agent"":""Mozilla/5.0 (Macintosh; Intel Mac OS X 10_14_4) AppleWebKit/537.36 (KHTML, like Gecko) Chrome/74.0.3729.169 Safari/537.36"",""on_chrome"":true,""on_mobile"":false,""language"":""en-US"",""screen_resolution"":[1440,900],""platform"":""MacIntel"",""timezone"":""Europe/Berlin""}","19","1850.3249999865425","","","1558605173323","30","","Bremen","[]","Bremen","true","false","2352.6549999951385"
"","html-voicekey-response","155","775990","0.0-4.151-0.151","3pmxft04s1s1gj1","{""user_agent"":""Mozilla/5.0 (Macintosh; Intel Mac OS X 10_14_4) AppleWebKit/537.36 (KHTML, like Gecko) Chrome/74.0.3729.169 Safari/537.36"",""on_chrome"":true,""on_mobile"":false,""language"":""en-US"",""screen_resolution"":[1440,900],""platform"":""MacIntel"",""timezone"":""Europe/Berlin""}","19","4233.885000003129","","","1558605176283","27","","Tübingen","[]","Tübingen","true","false","6158.220000012079"
"","html-voicekey-response","156","779202","0.0-4.152-0.152","3pmxft04s1s1gj1","{""user_agent"":""Mozilla/5.0 (Macintosh; Intel Mac OS X 10_14_4) AppleWebKit/537.36 (KHTML, like Gecko) Chrome/74.0.3729.169 Safari/537.36"",""on_chrome"":true,""on_mobile"":false,""language"":""en-US"",""screen_resolution"":[1440,900],""platform"":""MacIntel"",""timezone"":""Europe/Berlin""}","19","2066.1950000010897","","","1558605183050","15","","Nürnberg","[]","Nürnberg","true","false","2604.7700000053737"
"","html-voicekey-response","157","784718","0.0-4.153-0.153","3pmxft04s1s1gj1","{""user_agent"":""Mozilla/5.0 (Macintosh; Intel Mac OS X 10_14_4) AppleWebKit/537.36 (KHTML, like Gecko) Chrome/74.0.3729.169 Safari/537.36"",""on_chrome"":true,""on_mobile"":false,""language"":""en-US"",""screen_resolution"":[1440,900],""platform"":""MacIntel"",""timezone"":""Europe/Berlin""}","19","4384.249999997182","","","1558605186261","26","","Freiburg","[]","Freiburg","true","false","4908.669999989797"
"","html-voicekey-response","158","792336","0.0-4.154-0.154","3pmxft04s1s1gj1","{""user_agent"":""Mozilla/5.0 (Macintosh; Intel Mac OS X 10_14_4) AppleWebKit/537.36 (KHTML, like Gecko) Chrome/74.0.3729.169 Safari/537.36"",""on_chrome"":true,""on_mobile"":false,""language"":""en-US"",""screen_resolution"":[1440,900],""platform"":""MacIntel"",""timezone"":""Europe/Berlin""}","19","2918.159999995469","","","1558605191777","28","","","[]","Regensburg","false","false","3610.014999998384"
"","html-voicekey-response","159","795943","0.0-4.155-0.155","3pmxft04s1s1gj1","{""user_agent"":""Mozilla/5.0 (Macintosh; Intel Mac OS X 10_14_4) AppleWebKit/537.36 (KHTML, like Gecko) Chrome/74.0.3729.169 Safari/537.36"",""on_chrome"":true,""on_mobile"":false,""language"":""en-US"",""screen_resolution"":[1440,900],""platform"":""MacIntel"",""timezone"":""Europe/Berlin""}","19","2406.6549999932527","","","1558605199395","8","","Gotha","[]","Gotha","true","false","2999.569999999949"
"","html-voicekey-response","160","798826","0.0-4.156-0.156","3pmxft04s1s1gj1","{""user_agent"":""Mozilla/5.0 (Macintosh; Intel Mac OS X 10_14_4) AppleWebKit/537.36 (KHTML, like Gecko) Chrome/74.0.3729.169 Safari/537.36"",""on_chrome"":true,""on_mobile"":false,""language"":""en-US"",""screen_resolution"":[1440,900],""platform"":""MacIntel"",""timezone"":""Europe/Berlin""}","19","1766.4049999965123","","","1558605203003","19","","Frankfurt","[]","Frankfurt","true","false","2275.135000003502"
"","html-voicekey-response","161","802084","0.0-4.157-0.157","3pmxft04s1s1gj1","{""user_agent"":""Mozilla/5.0 (Macintosh; Intel Mac OS X 10_14_4) AppleWebKit/537.36 (KHTML, like Gecko) Chrome/74.0.3729.169 Safari/537.36"",""on_chrome"":true,""on_mobile"":false,""language"":""en-US"",""screen_resolution"":[1440,900],""platform"":""MacIntel"",""timezone"":""Europe/Berlin""}","19","2115.2399999935647","","","1558605205887","23","","Stuttgart","[]","Stuttgart","true","false","2648.4650000056718"
"","html-voicekey-response","162","805567","0.0-4.158-0.158","3pmxft04s1s1gj1","{""user_agent"":""Mozilla/5.0 (Macintosh; Intel Mac OS X 10_14_4) AppleWebKit/537.36 (KHTML, like Gecko) Chrome/74.0.3729.169 Safari/537.36"",""on_chrome"":true,""on_mobile"":false,""language"":""en-US"",""screen_resolution"":[1440,900],""platform"":""MacIntel"",""timezone"":""Europe/Berlin""}","19","2366.5600000038744","","","1558605209143","29","","Jena","[]","Jena","true","false","2875.3750000032596"
"","html-voicekey-response","163","812650","0.0-4.159-0.159","3pmxft04s1s1gj1","{""user_agent"":""Mozilla/5.0 (Macintosh; Intel Mac OS X 10_14_4) AppleWebKit/537.36 (KHTML, like Gecko) Chrome/74.0.3729.169 Safari/537.36"",""on_chrome"":true,""on_mobile"":false,""language"":""en-US"",""screen_resolution"":[1440,900],""platform"":""MacIntel"",""timezone"":""Europe/Berlin""}","19","5982.939999996079","","","1558605212626","26","","Freiburg","[]","Freiburg","true","false","6475.474999999278"
