"value","trial_type","trial_index","time_elapsed","internal_node_id","subject","browser_info","participant_number","rt","responses","view_history","presentation_start_time","id","text","response","keypresses","answer","correct","study","experimenter_rt"
"","call-function","0","6","0.0-0.0","l2j8l4ra8rdez1h","{""user_agent"":""Mozilla/5.0 (Macintosh; Intel Mac OS X 10_14_4) AppleWebKit/537.36 (KHTML, like Gecko) Chrome/74.0.3729.131 Safari/537.36"",""on_chrome"":true,""on_mobile"":false,""language"":""en-US"",""screen_resolution"":[1440,900],""platform"":""MacIntel"",""timezone"":""Europe/Berlin""}","2","","","","","","","","","","","",""
"","survey-text","1","50818","0.0-1.0","l2j8l4ra8rdez1h","{""user_agent"":""Mozilla/5.0 (Macintosh; Intel Mac OS X 10_14_4) AppleWebKit/537.36 (KHTML, like Gecko) Chrome/74.0.3729.131 Safari/537.36"",""on_chrome"":true,""on_mobile"":false,""language"":""en-US"",""screen_resolution"":[1440,900],""platform"":""MacIntel"",""timezone"":""Europe/Berlin""}","2","50811","{""Q0"":""2""}","","","","","","","","","",""
"","instructions","2","119125","0.0-2.0","l2j8l4ra8rdez1h","{""user_agent"":""Mozilla/5.0 (Macintosh; Intel Mac OS X 10_14_4) AppleWebKit/537.36 (KHTML, like Gecko) Chrome/74.0.3729.131 Safari/537.36"",""on_chrome"":true,""on_mobile"":false,""language"":""en-US"",""screen_resolution"":[1440,900],""platform"":""MacIntel"",""timezone"":""Europe/Berlin""}","2","68306","","[{""page_index"":0,""viewing_time"":68306}]","","","","","","","","",""
"","call-function","3","119125","0.0-3.0","l2j8l4ra8rdez1h","{""user_agent"":""Mozilla/5.0 (Macintosh; Intel Mac OS X 10_14_4) AppleWebKit/537.36 (KHTML, like Gecko) Chrome/74.0.3729.131 Safari/537.36"",""on_chrome"":true,""on_mobile"":false,""language"":""en-US"",""screen_resolution"":[1440,900],""platform"":""MacIntel"",""timezone"":""Europe/Berlin""}","2","","","","","","","","","","","",""
"","html-voicekey-response","4","125929","0.0-4.0-0.0","l2j8l4ra8rdez1h","{""user_agent"":""Mozilla/5.0 (Macintosh; Intel Mac OS X 10_14_4) AppleWebKit/537.36 (KHTML, like Gecko) Chrome/74.0.3729.131 Safari/537.36"",""on_chrome"":true,""on_mobile"":false,""language"":""en-US"",""screen_resolution"":[1440,900],""platform"":""MacIntel"",""timezone"":""Europe/Berlin""}","2","4841.58499999633","","","1557907733950","1","","Magdeburg","[]","Magdeburg","true","true","6200.870000000577"
"","html-voicekey-response","5","133431","0.0-4.1-0.1","l2j8l4ra8rdez1h","{""user_agent"":""Mozilla/5.0 (Macintosh; Intel Mac OS X 10_14_4) AppleWebKit/537.36 (KHTML, like Gecko) Chrome/74.0.3729.131 Safari/537.36"",""on_chrome"":true,""on_mobile"":false,""language"":""en-US"",""screen_resolution"":[1440,900],""platform"":""MacIntel"",""timezone"":""Europe/Berlin""}","2","6470.990000010561","","","1557907740754","1","","Magdeburg","[]","Magdeburg","true","false","6897.515000004205"
"","html-voicekey-response","6","137434","0.0-4.2-0.2","l2j8l4ra8rdez1h","{""user_agent"":""Mozilla/5.0 (Macintosh; Intel Mac OS X 10_14_4) AppleWebKit/537.36 (KHTML, like Gecko) Chrome/74.0.3729.131 Safari/537.36"",""on_chrome"":true,""on_mobile"":false,""language"":""en-US"",""screen_resolution"":[1440,900],""platform"":""MacIntel"",""timezone"":""Europe/Berlin""}","2","2476.694999999227","","","1557907748255","2","","Berlin","[]","Berlin","true","true","3401.435000007041"
"","html-voicekey-response","7","145784","0.0-4.3-0.3","l2j8l4ra8rdez1h","{""user_agent"":""Mozilla/5.0 (Macintosh; Intel Mac OS X 10_14_4) AppleWebKit/537.36 (KHTML, like Gecko) Chrome/74.0.3729.131 Safari/537.36"",""on_chrome"":true,""on_mobile"":false,""language"":""en-US"",""screen_resolution"":[1440,900],""platform"":""MacIntel"",""timezone"":""Europe/Berlin""}","2","3273.219999997155","","","1557907752258","2","","Berlin","[]","Berlin","true","false","7747.824999998556"
"","html-voicekey-response","8","149944","0.0-4.4-0.4","l2j8l4ra8rdez1h","{""user_agent"":""Mozilla/5.0 (Macintosh; Intel Mac OS X 10_14_4) AppleWebKit/537.36 (KHTML, like Gecko) Chrome/74.0.3729.131 Safari/537.36"",""on_chrome"":true,""on_mobile"":false,""language"":""en-US"",""screen_resolution"":[1440,900],""platform"":""MacIntel"",""timezone"":""Europe/Berlin""}","2","2467.6949999937556","","","1557907760607","3","","Ingolstadt","[]","Ingolstadt","true","true","3559.124999999767"
"","html-voicekey-response","9","153912","0.0-4.5-0.5","l2j8l4ra8rdez1h","{""user_agent"":""Mozilla/5.0 (Macintosh; Intel Mac OS X 10_14_4) AppleWebKit/537.36 (KHTML, like Gecko) Chrome/74.0.3729.131 Safari/537.36"",""on_chrome"":true,""on_mobile"":false,""language"":""en-US"",""screen_resolution"":[1440,900],""platform"":""MacIntel"",""timezone"":""Europe/Berlin""}","2","2406.680000008992","","","1557907764768","4","","Würzburg","[]","Würzburg","true","true","3365.9550000011222"
"","html-voicekey-response","10","163896","0.0-4.6-0.6","l2j8l4ra8rdez1h","{""user_agent"":""Mozilla/5.0 (Macintosh; Intel Mac OS X 10_14_4) AppleWebKit/537.36 (KHTML, like Gecko) Chrome/74.0.3729.131 Safari/537.36"",""on_chrome"":true,""on_mobile"":false,""language"":""en-US"",""screen_resolution"":[1440,900],""platform"":""MacIntel"",""timezone"":""Europe/Berlin""}","2","7672.19000000644","","","1557907768736","3","","Ingolstadt","[]","Ingolstadt","true","false","9380.959999994957"
"","html-voicekey-response","11","166889","0.0-4.7-0.7","l2j8l4ra8rdez1h","{""user_agent"":""Mozilla/5.0 (Macintosh; Intel Mac OS X 10_14_4) AppleWebKit/537.36 (KHTML, like Gecko) Chrome/74.0.3729.131 Safari/537.36"",""on_chrome"":true,""on_mobile"":false,""language"":""en-US"",""screen_resolution"":[1440,900],""platform"":""MacIntel"",""timezone"":""Europe/Berlin""}","2","1732.6449999907986","","","1557907778719","4","","Würzburg","[]","Würzburg","true","false","2392.229999997653"
"","html-voicekey-response","12","170372","0.0-4.8-0.8","l2j8l4ra8rdez1h","{""user_agent"":""Mozilla/5.0 (Macintosh; Intel Mac OS X 10_14_4) AppleWebKit/537.36 (KHTML, like Gecko) Chrome/74.0.3729.131 Safari/537.36"",""on_chrome"":true,""on_mobile"":false,""language"":""en-US"",""screen_resolution"":[1440,900],""platform"":""MacIntel"",""timezone"":""Europe/Berlin""}","2","1990.5049999886892","","","1557907781713","5","","Aachen","[]","Aachen","true","true","2881.8499999906635"
"","html-voicekey-response","13","173726","0.0-4.9-0.9","l2j8l4ra8rdez1h","{""user_agent"":""Mozilla/5.0 (Macintosh; Intel Mac OS X 10_14_4) AppleWebKit/537.36 (KHTML, like Gecko) Chrome/74.0.3729.131 Safari/537.36"",""on_chrome"":true,""on_mobile"":false,""language"":""en-US"",""screen_resolution"":[1440,900],""platform"":""MacIntel"",""timezone"":""Europe/Berlin""}","2","1722.8199999897975","","","1557907785196","6","","Dresden","[]","Dresden","true","true","2748.7899999978254"
"","html-voicekey-response","14","188596","0.0-4.10-0.10","l2j8l4ra8rdez1h","{""user_agent"":""Mozilla/5.0 (Macintosh; Intel Mac OS X 10_14_4) AppleWebKit/537.36 (KHTML, like Gecko) Chrome/74.0.3729.131 Safari/537.36"",""on_chrome"":true,""on_mobile"":false,""language"":""en-US"",""screen_resolution"":[1440,900],""platform"":""MacIntel"",""timezone"":""Europe/Berlin""}","2","7659.164999998966","","","1557907788550","5","","","[]","Aachen","false","false","10867.5099999964"
"","html-voicekey-response","15","192640","0.0-4.11-0.11","l2j8l4ra8rdez1h","{""user_agent"":""Mozilla/5.0 (Macintosh; Intel Mac OS X 10_14_4) AppleWebKit/537.36 (KHTML, like Gecko) Chrome/74.0.3729.131 Safari/537.36"",""on_chrome"":true,""on_mobile"":false,""language"":""en-US"",""screen_resolution"":[1440,900],""platform"":""MacIntel"",""timezone"":""Europe/Berlin""}","2","2634.0650000000373","","","1557907803419","6","","Dresden","[]","Dresden","true","false","3442.3299999907613"
"","html-voicekey-response","16","195974","0.0-4.12-0.12","l2j8l4ra8rdez1h","{""user_agent"":""Mozilla/5.0 (Macintosh; Intel Mac OS X 10_14_4) AppleWebKit/537.36 (KHTML, like Gecko) Chrome/74.0.3729.131 Safari/537.36"",""on_chrome"":true,""on_mobile"":false,""language"":""en-US"",""screen_resolution"":[1440,900],""platform"":""MacIntel"",""timezone"":""Europe/Berlin""}","2","1971.7949999993202","","","1557907807464","1","","Magdeburg","[]","Magdeburg","true","false","2731.0549999965588"
"","html-voicekey-response","17","202346","0.0-4.13-0.13","l2j8l4ra8rdez1h","{""user_agent"":""Mozilla/5.0 (Macintosh; Intel Mac OS X 10_14_4) AppleWebKit/537.36 (KHTML, like Gecko) Chrome/74.0.3729.131 Safari/537.36"",""on_chrome"":true,""on_mobile"":false,""language"":""en-US"",""screen_resolution"":[1440,900],""platform"":""MacIntel"",""timezone"":""Europe/Berlin""}","2","5228.289999993494","","","1557907810798","2","","Berlin","[]","Berlin","true","false","5770.134999998845"
"","html-voicekey-response","18","206146","0.0-4.14-0.14","l2j8l4ra8rdez1h","{""user_agent"":""Mozilla/5.0 (Macintosh; Intel Mac OS X 10_14_4) AppleWebKit/537.36 (KHTML, like Gecko) Chrome/74.0.3729.131 Safari/537.36"",""on_chrome"":true,""on_mobile"":false,""language"":""en-US"",""screen_resolution"":[1440,900],""platform"":""MacIntel"",""timezone"":""Europe/Berlin""}","2","2473.4900000128896","","","1557907817170","3","","Ingolstadt","[]","Ingolstadt","true","false","3198.4599999996135"
"","html-voicekey-response","19","209471","0.0-4.15-0.15","l2j8l4ra8rdez1h","{""user_agent"":""Mozilla/5.0 (Macintosh; Intel Mac OS X 10_14_4) AppleWebKit/537.36 (KHTML, like Gecko) Chrome/74.0.3729.131 Safari/537.36"",""on_chrome"":true,""on_mobile"":false,""language"":""en-US"",""screen_resolution"":[1440,900],""platform"":""MacIntel"",""timezone"":""Europe/Berlin""}","2","1648.6000000093832","","","1557907820970","7","","Erfurt","[]","Erfurt","true","true","2723.650000014459"
"","html-voicekey-response","20","212904","0.0-4.16-0.16","l2j8l4ra8rdez1h","{""user_agent"":""Mozilla/5.0 (Macintosh; Intel Mac OS X 10_14_4) AppleWebKit/537.36 (KHTML, like Gecko) Chrome/74.0.3729.131 Safari/537.36"",""on_chrome"":true,""on_mobile"":false,""language"":""en-US"",""screen_resolution"":[1440,900],""platform"":""MacIntel"",""timezone"":""Europe/Berlin""}","2","2088.4750000057743","","","1557907824295","8","","Gotha","[]","Gotha","true","true","2831.225000001723"
"","html-voicekey-response","21","222672","0.0-4.17-0.17","l2j8l4ra8rdez1h","{""user_agent"":""Mozilla/5.0 (Macintosh; Intel Mac OS X 10_14_4) AppleWebKit/537.36 (KHTML, like Gecko) Chrome/74.0.3729.131 Safari/537.36"",""on_chrome"":true,""on_mobile"":false,""language"":""en-US"",""screen_resolution"":[1440,900],""platform"":""MacIntel"",""timezone"":""Europe/Berlin""}","2","5155.455000009015","","","1557907827729","7","","","[]","Erfurt","false","false","5764.775000003283"
"","html-voicekey-response","22","236562","0.0-4.18-0.18","l2j8l4ra8rdez1h","{""user_agent"":""Mozilla/5.0 (Macintosh; Intel Mac OS X 10_14_4) AppleWebKit/537.36 (KHTML, like Gecko) Chrome/74.0.3729.131 Safari/537.36"",""on_chrome"":true,""on_mobile"":false,""language"":""en-US"",""screen_resolution"":[1440,900],""platform"":""MacIntel"",""timezone"":""Europe/Berlin""}","2","8927.68999999119","","","1557907837496","8","","","[]","Gotha","false","false","9887.249999999767"
"","html-voicekey-response","23","241357","0.0-4.19-0.19","l2j8l4ra8rdez1h","{""user_agent"":""Mozilla/5.0 (Macintosh; Intel Mac OS X 10_14_4) AppleWebKit/537.36 (KHTML, like Gecko) Chrome/74.0.3729.131 Safari/537.36"",""on_chrome"":true,""on_mobile"":false,""language"":""en-US"",""screen_resolution"":[1440,900],""platform"":""MacIntel"",""timezone"":""Europe/Berlin""}","2","3417.4849999925123","","","1557907851385","4","","Würzburg","[]","Würzburg","true","false","4192.939999993541"
"","html-voicekey-response","24","249316","0.0-4.20-0.20","l2j8l4ra8rdez1h","{""user_agent"":""Mozilla/5.0 (Macintosh; Intel Mac OS X 10_14_4) AppleWebKit/537.36 (KHTML, like Gecko) Chrome/74.0.3729.131 Safari/537.36"",""on_chrome"":true,""on_mobile"":false,""language"":""en-US"",""screen_resolution"":[1440,900],""platform"":""MacIntel"",""timezone"":""Europe/Berlin""}","2","2955.004999990552","","","1557907856181","5","","","[]","Aachen","false","false","3957.8099999926053"
"","html-voicekey-response","25","253499","0.0-4.21-0.21","l2j8l4ra8rdez1h","{""user_agent"":""Mozilla/5.0 (Macintosh; Intel Mac OS X 10_14_4) AppleWebKit/537.36 (KHTML, like Gecko) Chrome/74.0.3729.131 Safari/537.36"",""on_chrome"":true,""on_mobile"":false,""language"":""en-US"",""screen_resolution"":[1440,900],""platform"":""MacIntel"",""timezone"":""Europe/Berlin""}","2","3055.4350000109757","","","1557907864140","2","","Berlin","[]","Berlin","true","false","3581.0900000069523"
"","html-voicekey-response","26","257834","0.0-4.22-0.22","l2j8l4ra8rdez1h","{""user_agent"":""Mozilla/5.0 (Macintosh; Intel Mac OS X 10_14_4) AppleWebKit/537.36 (KHTML, like Gecko) Chrome/74.0.3729.131 Safari/537.36"",""on_chrome"":true,""on_mobile"":false,""language"":""en-US"",""screen_resolution"":[1440,900],""platform"":""MacIntel"",""timezone"":""Europe/Berlin""}","2","3073.2850000002422","","","1557907868323","6","","Dresden","[]","Dresden","true","false","3731.629999994766"
"","html-voicekey-response","27","265040","0.0-4.23-0.23","l2j8l4ra8rdez1h","{""user_agent"":""Mozilla/5.0 (Macintosh; Intel Mac OS X 10_14_4) AppleWebKit/537.36 (KHTML, like Gecko) Chrome/74.0.3729.131 Safari/537.36"",""on_chrome"":true,""on_mobile"":false,""language"":""en-US"",""screen_resolution"":[1440,900],""platform"":""MacIntel"",""timezone"":""Europe/Berlin""}","2","2295.4200000038604","","","1557907872658","7","","","[]","Erfurt","false","false","3204.1000000026543"
"","html-voicekey-response","28","268073","0.0-4.24-0.24","l2j8l4ra8rdez1h","{""user_agent"":""Mozilla/5.0 (Macintosh; Intel Mac OS X 10_14_4) AppleWebKit/537.36 (KHTML, like Gecko) Chrome/74.0.3729.131 Safari/537.36"",""on_chrome"":true,""on_mobile"":false,""language"":""en-US"",""screen_resolution"":[1440,900],""platform"":""MacIntel"",""timezone"":""Europe/Berlin""}","2","1920.989999993099","","","1557907879865","9","","München","[]","München","true","true","2430.1350000023376"
"","html-voicekey-response","29","272363","0.0-4.25-0.25","l2j8l4ra8rdez1h","{""user_agent"":""Mozilla/5.0 (Macintosh; Intel Mac OS X 10_14_4) AppleWebKit/537.36 (KHTML, like Gecko) Chrome/74.0.3729.131 Safari/537.36"",""on_chrome"":true,""on_mobile"":false,""language"":""en-US"",""screen_resolution"":[1440,900],""platform"":""MacIntel"",""timezone"":""Europe/Berlin""}","2","3129.7600000051084","","","1557907882897","10","","Heidelberg","[]","Heidelberg","true","true","3688.045000002603"
"","html-voicekey-response","30","283581","0.0-4.26-0.26","l2j8l4ra8rdez1h","{""user_agent"":""Mozilla/5.0 (Macintosh; Intel Mac OS X 10_14_4) AppleWebKit/537.36 (KHTML, like Gecko) Chrome/74.0.3729.131 Safari/537.36"",""on_chrome"":true,""on_mobile"":false,""language"":""en-US"",""screen_resolution"":[1440,900],""platform"":""MacIntel"",""timezone"":""Europe/Berlin""}","2","5421.674999999441","","","1557907887188","9","","","[]","München","false","false","7213.579999996"
"","html-voicekey-response","31","287520","0.0-4.27-0.27","l2j8l4ra8rdez1h","{""user_agent"":""Mozilla/5.0 (Macintosh; Intel Mac OS X 10_14_4) AppleWebKit/537.36 (KHTML, like Gecko) Chrome/74.0.3729.131 Safari/537.36"",""on_chrome"":true,""on_mobile"":false,""language"":""en-US"",""screen_resolution"":[1440,900],""platform"":""MacIntel"",""timezone"":""Europe/Berlin""}","2","2077.5649999939837","","","1557907898406","10","","Heidelberg","[]","Heidelberg","true","false","3337.1699999988778"
"","html-voicekey-response","32","290705","0.0-4.28-0.28","l2j8l4ra8rdez1h","{""user_agent"":""Mozilla/5.0 (Macintosh; Intel Mac OS X 10_14_4) AppleWebKit/537.36 (KHTML, like Gecko) Chrome/74.0.3729.131 Safari/537.36"",""on_chrome"":true,""on_mobile"":false,""language"":""en-US"",""screen_resolution"":[1440,900],""platform"":""MacIntel"",""timezone"":""Europe/Berlin""}","2","1822.0499999968802","","","1557907902345","2","","Berlin","[]","Berlin","true","false","2580.8149999938905"
"","html-voicekey-response","33","297280","0.0-4.29-0.29","l2j8l4ra8rdez1h","{""user_agent"":""Mozilla/5.0 (Macintosh; Intel Mac OS X 10_14_4) AppleWebKit/537.36 (KHTML, like Gecko) Chrome/74.0.3729.131 Safari/537.36"",""on_chrome"":true,""on_mobile"":false,""language"":""en-US"",""screen_resolution"":[1440,900],""platform"":""MacIntel"",""timezone"":""Europe/Berlin""}","2","1728.7799999993063","","","1557907905530","8","","","[]","Gotha","false","false","2572.0799999980954"
"","html-voicekey-response","34","304998","0.0-4.30-0.30","l2j8l4ra8rdez1h","{""user_agent"":""Mozilla/5.0 (Macintosh; Intel Mac OS X 10_14_4) AppleWebKit/537.36 (KHTML, like Gecko) Chrome/74.0.3729.131 Safari/537.36"",""on_chrome"":true,""on_mobile"":false,""language"":""en-US"",""screen_resolution"":[1440,900],""platform"":""MacIntel"",""timezone"":""Europe/Berlin""}","2","2439.244999995781","","","1557907912104","4","","","[]","Würzburg","false","false","3715.009999999893"
"","html-voicekey-response","35","314420","0.0-4.31-0.31","l2j8l4ra8rdez1h","{""user_agent"":""Mozilla/5.0 (Macintosh; Intel Mac OS X 10_14_4) AppleWebKit/537.36 (KHTML, like Gecko) Chrome/74.0.3729.131 Safari/537.36"",""on_chrome"":true,""on_mobile"":false,""language"":""en-US"",""screen_resolution"":[1440,900],""platform"":""MacIntel"",""timezone"":""Europe/Berlin""}","2","4493.225000007287","","","1557907919823","5","","","[]","Aachen","false","false","5418.684999996913"
"","html-voicekey-response","36","325094","0.0-4.32-0.32","l2j8l4ra8rdez1h","{""user_agent"":""Mozilla/5.0 (Macintosh; Intel Mac OS X 10_14_4) AppleWebKit/537.36 (KHTML, like Gecko) Chrome/74.0.3729.131 Safari/537.36"",""on_chrome"":true,""on_mobile"":false,""language"":""en-US"",""screen_resolution"":[1440,900],""platform"":""MacIntel"",""timezone"":""Europe/Berlin""}","2","5747.010000000801","","","1557907929244","6","","","[]","Dresden","false","false","6671.560000002501"
"","html-voicekey-response","37","331502","0.0-4.33-0.33","l2j8l4ra8rdez1h","{""user_agent"":""Mozilla/5.0 (Macintosh; Intel Mac OS X 10_14_4) AppleWebKit/537.36 (KHTML, like Gecko) Chrome/74.0.3729.131 Safari/537.36"",""on_chrome"":true,""on_mobile"":false,""language"":""en-US"",""screen_resolution"":[1440,900],""platform"":""MacIntel"",""timezone"":""Europe/Berlin""}","2","1463.735000006482","","","1557907939917","7","","","[]","Erfurt","false","false","2406.4000000071246"
"","html-voicekey-response","38","340958","0.0-4.34-0.34","l2j8l4ra8rdez1h","{""user_agent"":""Mozilla/5.0 (Macintosh; Intel Mac OS X 10_14_4) AppleWebKit/537.36 (KHTML, like Gecko) Chrome/74.0.3729.131 Safari/537.36"",""on_chrome"":true,""on_mobile"":false,""language"":""en-US"",""screen_resolution"":[1440,900],""platform"":""MacIntel"",""timezone"":""Europe/Berlin""}","2","4754.435000004223","","","1557907946326","3","","","[]","Ingolstadt","false","false","5453.80999999179"
"","html-voicekey-response","39","345642","0.0-4.35-0.35","l2j8l4ra8rdez1h","{""user_agent"":""Mozilla/5.0 (Macintosh; Intel Mac OS X 10_14_4) AppleWebKit/537.36 (KHTML, like Gecko) Chrome/74.0.3729.131 Safari/537.36"",""on_chrome"":true,""on_mobile"":false,""language"":""en-US"",""screen_resolution"":[1440,900],""platform"":""MacIntel"",""timezone"":""Europe/Berlin""}","2","3420.6950000023703","","","1557907955783","9","","München","[]","München","true","false","4080.245000004652"
"","html-voicekey-response","40","356817","0.0-4.36-0.36","l2j8l4ra8rdez1h","{""user_agent"":""Mozilla/5.0 (Macintosh; Intel Mac OS X 10_14_4) AppleWebKit/537.36 (KHTML, like Gecko) Chrome/74.0.3729.131 Safari/537.36"",""on_chrome"":true,""on_mobile"":false,""language"":""en-US"",""screen_resolution"":[1440,900],""platform"":""MacIntel"",""timezone"":""Europe/Berlin""}","2","6398.175000003748","","","1557907960466","5","","","[]","Aachen","false","false","7173.079999993206"
"","html-voicekey-response","41","363007","0.0-4.37-0.37","l2j8l4ra8rdez1h","{""user_agent"":""Mozilla/5.0 (Macintosh; Intel Mac OS X 10_14_4) AppleWebKit/537.36 (KHTML, like Gecko) Chrome/74.0.3729.131 Safari/537.36"",""on_chrome"":true,""on_mobile"":false,""language"":""en-US"",""screen_resolution"":[1440,900],""platform"":""MacIntel"",""timezone"":""Europe/Berlin""}","2","1373.279999994184","","","1557907971641","8","","","[]","Gotha","false","false","2188.594999999623"
"","html-voicekey-response","42","377208","0.0-4.38-0.38","l2j8l4ra8rdez1h","{""user_agent"":""Mozilla/5.0 (Macintosh; Intel Mac OS X 10_14_4) AppleWebKit/537.36 (KHTML, like Gecko) Chrome/74.0.3729.131 Safari/537.36"",""on_chrome"":true,""on_mobile"":false,""language"":""en-US"",""screen_resolution"":[1440,900],""platform"":""MacIntel"",""timezone"":""Europe/Berlin""}","2","8655.259999993932","","","1557907977831","10","","","[]","Heidelberg","false","false","10198.63999998779"
"","html-voicekey-response","43","387736","0.0-4.39-0.39","l2j8l4ra8rdez1h","{""user_agent"":""Mozilla/5.0 (Macintosh; Intel Mac OS X 10_14_4) AppleWebKit/537.36 (KHTML, like Gecko) Chrome/74.0.3729.131 Safari/537.36"",""on_chrome"":true,""on_mobile"":false,""language"":""en-US"",""screen_resolution"":[1440,900],""platform"":""MacIntel"",""timezone"":""Europe/Berlin""}","2","5283.709999997727","","","1557907992032","7","","","[]","Erfurt","false","false","6524.009999993723"
"","html-voicekey-response","44","395809","0.0-4.40-0.40","l2j8l4ra8rdez1h","{""user_agent"":""Mozilla/5.0 (Macintosh; Intel Mac OS X 10_14_4) AppleWebKit/537.36 (KHTML, like Gecko) Chrome/74.0.3729.131 Safari/537.36"",""on_chrome"":true,""on_mobile"":false,""language"":""en-US"",""screen_resolution"":[1440,900],""platform"":""MacIntel"",""timezone"":""Europe/Berlin""}","2","1495.3999999941793","","","1557908002561","4","","","[]","Würzburg","false","false","4071.0350000008475"
"","html-voicekey-response","45","399120","0.0-4.41-0.41","l2j8l4ra8rdez1h","{""user_agent"":""Mozilla/5.0 (Macintosh; Intel Mac OS X 10_14_4) AppleWebKit/537.36 (KHTML, like Gecko) Chrome/74.0.3729.131 Safari/537.36"",""on_chrome"":true,""on_mobile"":false,""language"":""en-US"",""screen_resolution"":[1440,900],""platform"":""MacIntel"",""timezone"":""Europe/Berlin""}","2","1988.7350000006613","","","1557908010634","2","","Berlin","[]","Berlin","true","false","2708.729999998468"
"","html-voicekey-response","46","409687","0.0-4.42-0.42","l2j8l4ra8rdez1h","{""user_agent"":""Mozilla/5.0 (Macintosh; Intel Mac OS X 10_14_4) AppleWebKit/537.36 (KHTML, like Gecko) Chrome/74.0.3729.131 Safari/537.36"",""on_chrome"":true,""on_mobile"":false,""language"":""en-US"",""screen_resolution"":[1440,900],""platform"":""MacIntel"",""timezone"":""Europe/Berlin""}","2","5502.804999990831","","","1557908013947","5","","","[]","Aachen","false","false","6561.524999997346"
"","html-voicekey-response","47","421614","0.0-4.43-0.43","l2j8l4ra8rdez1h","{""user_agent"":""Mozilla/5.0 (Macintosh; Intel Mac OS X 10_14_4) AppleWebKit/537.36 (KHTML, like Gecko) Chrome/74.0.3729.131 Safari/537.36"",""on_chrome"":true,""on_mobile"":false,""language"":""en-US"",""screen_resolution"":[1440,900],""platform"":""MacIntel"",""timezone"":""Europe/Berlin""}","2","7105.445000002719","","","1557908024512","8","","","[]","Gotha","false","false","7924.190000005183"
"","html-voicekey-response","48","426756","0.0-4.44-0.44","l2j8l4ra8rdez1h","{""user_agent"":""Mozilla/5.0 (Macintosh; Intel Mac OS X 10_14_4) AppleWebKit/537.36 (KHTML, like Gecko) Chrome/74.0.3729.131 Safari/537.36"",""on_chrome"":true,""on_mobile"":false,""language"":""en-US"",""screen_resolution"":[1440,900],""platform"":""MacIntel"",""timezone"":""Europe/Berlin""}","2","3755.6100000018255","","","1557908036439","3","","Ingolstadt","[]","Ingolstadt","true","false","4538.245000003371"
"","html-voicekey-response","49","434871","0.0-4.45-0.45","l2j8l4ra8rdez1h","{""user_agent"":""Mozilla/5.0 (Macintosh; Intel Mac OS X 10_14_4) AppleWebKit/537.36 (KHTML, like Gecko) Chrome/74.0.3729.131 Safari/537.36"",""on_chrome"":true,""on_mobile"":false,""language"":""en-US"",""screen_resolution"":[1440,900],""platform"":""MacIntel"",""timezone"":""Europe/Berlin""}","2","3454.5799999994692","","","1557908041580","7","","","[]","Erfurt","false","false","4112.9800000053365"
"","html-voicekey-response","50","438082","0.0-4.46-0.46","l2j8l4ra8rdez1h","{""user_agent"":""Mozilla/5.0 (Macintosh; Intel Mac OS X 10_14_4) AppleWebKit/537.36 (KHTML, like Gecko) Chrome/74.0.3729.131 Safari/537.36"",""on_chrome"":true,""on_mobile"":false,""language"":""en-US"",""screen_resolution"":[1440,900],""platform"":""MacIntel"",""timezone"":""Europe/Berlin""}","2","1889.239999998454","","","1557908049695","9","","München","[]","München","true","false","2608.504999996512"
"","html-voicekey-response","51","447381","0.0-4.47-0.47","l2j8l4ra8rdez1h","{""user_agent"":""Mozilla/5.0 (Macintosh; Intel Mac OS X 10_14_4) AppleWebKit/537.36 (KHTML, like Gecko) Chrome/74.0.3729.131 Safari/537.36"",""on_chrome"":true,""on_mobile"":false,""language"":""en-US"",""screen_resolution"":[1440,900],""platform"":""MacIntel"",""timezone"":""Europe/Berlin""}","2","3706.219999987143","","","1557908052906","4","","","[]","Würzburg","false","false","5297.984999997425"
"","html-voicekey-response","52","457773","0.0-4.48-0.48","l2j8l4ra8rdez1h","{""user_agent"":""Mozilla/5.0 (Macintosh; Intel Mac OS X 10_14_4) AppleWebKit/537.36 (KHTML, like Gecko) Chrome/74.0.3729.131 Safari/537.36"",""on_chrome"":true,""on_mobile"":false,""language"":""en-US"",""screen_resolution"":[1440,900],""platform"":""MacIntel"",""timezone"":""Europe/Berlin""}","2","4838.825000007846","","","1557908062206","10","","","[]","Heidelberg","false","false","6389.725000000908"
"","html-voicekey-response","53","473863","0.0-4.49-0.49","l2j8l4ra8rdez1h","{""user_agent"":""Mozilla/5.0 (Macintosh; Intel Mac OS X 10_14_4) AppleWebKit/537.36 (KHTML, like Gecko) Chrome/74.0.3729.131 Safari/537.36"",""on_chrome"":true,""on_mobile"":false,""language"":""en-US"",""screen_resolution"":[1440,900],""platform"":""MacIntel"",""timezone"":""Europe/Berlin""}","2","8738.110000000079","","","1557908072598","8","","","[]","Gotha","false","false","12087.434999994002"
"","html-voicekey-response","54","482641","0.0-4.50-0.50","l2j8l4ra8rdez1h","{""user_agent"":""Mozilla/5.0 (Macintosh; Intel Mac OS X 10_14_4) AppleWebKit/537.36 (KHTML, like Gecko) Chrome/74.0.3729.131 Safari/537.36"",""on_chrome"":true,""on_mobile"":false,""language"":""en-US"",""screen_resolution"":[1440,900],""platform"":""MacIntel"",""timezone"":""Europe/Berlin""}","2","4098.980000004149","","","1557908088688","7","","","[]","Erfurt","false","false","4775.544999996782"
"","html-voicekey-response","55","487864","0.0-4.51-0.51","l2j8l4ra8rdez1h","{""user_agent"":""Mozilla/5.0 (Macintosh; Intel Mac OS X 10_14_4) AppleWebKit/537.36 (KHTML, like Gecko) Chrome/74.0.3729.131 Safari/537.36"",""on_chrome"":true,""on_mobile"":false,""language"":""en-US"",""screen_resolution"":[1440,900],""platform"":""MacIntel"",""timezone"":""Europe/Berlin""}","2","3988.384999998589","","","1557908097465","6","","Dresden","[]","Dresden","true","false","4621.49999999383"
"","html-voicekey-response","56","496414","0.0-4.52-0.52","l2j8l4ra8rdez1h","{""user_agent"":""Mozilla/5.0 (Macintosh; Intel Mac OS X 10_14_4) AppleWebKit/537.36 (KHTML, like Gecko) Chrome/74.0.3729.131 Safari/537.36"",""on_chrome"":true,""on_mobile"":false,""language"":""en-US"",""screen_resolution"":[1440,900],""platform"":""MacIntel"",""timezone"":""Europe/Berlin""}","2","3538.509999992885","","","1557908102689","5","","","[]","Aachen","false","false","4547.924999991665"
"","html-voicekey-response","57","499474","0.0-4.53-0.53","l2j8l4ra8rdez1h","{""user_agent"":""Mozilla/5.0 (Macintosh; Intel Mac OS X 10_14_4) AppleWebKit/537.36 (KHTML, like Gecko) Chrome/74.0.3729.131 Safari/537.36"",""on_chrome"":true,""on_mobile"":false,""language"":""en-US"",""screen_resolution"":[1440,900],""platform"":""MacIntel"",""timezone"":""Europe/Berlin""}","2","1955.4000000005822","","","1557908111239","3","","Ingolstadt","[]","Ingolstadt","true","false","2457.7299999946263"
"","html-voicekey-response","58","509891","0.0-4.54-0.54","l2j8l4ra8rdez1h","{""user_agent"":""Mozilla/5.0 (Macintosh; Intel Mac OS X 10_14_4) AppleWebKit/537.36 (KHTML, like Gecko) Chrome/74.0.3729.131 Safari/537.36"",""on_chrome"":true,""on_mobile"":false,""language"":""en-US"",""screen_resolution"":[1440,900],""platform"":""MacIntel"",""timezone"":""Europe/Berlin""}","2","5523.064999995613","","","1557908114298","4","","","[]","Würzburg","false","false","6414.194999990286"
"","html-voicekey-response","59","514902","0.0-4.55-0.55","l2j8l4ra8rdez1h","{""user_agent"":""Mozilla/5.0 (Macintosh; Intel Mac OS X 10_14_4) AppleWebKit/537.36 (KHTML, like Gecko) Chrome/74.0.3729.131 Safari/537.36"",""on_chrome"":true,""on_mobile"":false,""language"":""en-US"",""screen_resolution"":[1440,900],""platform"":""MacIntel"",""timezone"":""Europe/Berlin""}","2","3855.695000000042","","","1557908124715","10","","Heidelberg","[]","Heidelberg","true","false","4409.419999996317"
"","html-voicekey-response","60","525369","0.0-4.56-0.56","l2j8l4ra8rdez1h","{""user_agent"":""Mozilla/5.0 (Macintosh; Intel Mac OS X 10_14_4) AppleWebKit/537.36 (KHTML, like Gecko) Chrome/74.0.3729.131 Safari/537.36"",""on_chrome"":true,""on_mobile"":false,""language"":""en-US"",""screen_resolution"":[1440,900],""platform"":""MacIntel"",""timezone"":""Europe/Berlin""}","2","5522.220000007865","","","1557908129726","5","","","[]","Aachen","false","false","6464.124999998603"
"","html-voicekey-response","61","534960","0.0-4.57-0.57","l2j8l4ra8rdez1h","{""user_agent"":""Mozilla/5.0 (Macintosh; Intel Mac OS X 10_14_4) AppleWebKit/537.36 (KHTML, like Gecko) Chrome/74.0.3729.131 Safari/537.36"",""on_chrome"":true,""on_mobile"":false,""language"":""en-US"",""screen_resolution"":[1440,900],""platform"":""MacIntel"",""timezone"":""Europe/Berlin""}","2","4862.489999993913","","","1557908140194","7","","","[]","Erfurt","false","false","5587.919999990845"
"","html-voicekey-response","62","537800","0.0-4.58-0.58","l2j8l4ra8rdez1h","{""user_agent"":""Mozilla/5.0 (Macintosh; Intel Mac OS X 10_14_4) AppleWebKit/537.36 (KHTML, like Gecko) Chrome/74.0.3729.131 Safari/537.36"",""on_chrome"":true,""on_mobile"":false,""language"":""en-US"",""screen_resolution"":[1440,900],""platform"":""MacIntel"",""timezone"":""Europe/Berlin""}","2","1579.4899999981048","","","1557908149784","6","","Dresden","[]","Dresden","true","false","2238.1549999990966"
"","html-voicekey-response","63","543166","0.0-4.59-0.59","l2j8l4ra8rdez1h","{""user_agent"":""Mozilla/5.0 (Macintosh; Intel Mac OS X 10_14_4) AppleWebKit/537.36 (KHTML, like Gecko) Chrome/74.0.3729.131 Safari/537.36"",""on_chrome"":true,""on_mobile"":false,""language"":""en-US"",""screen_resolution"":[1440,900],""platform"":""MacIntel"",""timezone"":""Europe/Berlin""}","2","4337.455000009713","","","1557908152625","2","","Berlin","[]","Berlin","true","false","4762.6949999976205"
"","html-voicekey-response","64","550324","0.0-4.60-0.60","l2j8l4ra8rdez1h","{""user_agent"":""Mozilla/5.0 (Macintosh; Intel Mac OS X 10_14_4) AppleWebKit/537.36 (KHTML, like Gecko) Chrome/74.0.3729.131 Safari/537.36"",""on_chrome"":true,""on_mobile"":false,""language"":""en-US"",""screen_resolution"":[1440,900],""platform"":""MacIntel"",""timezone"":""Europe/Berlin""}","2","2213.589999993774","","","1557908157990","8","","","[]","Gotha","false","false","3155.834999997751"
"","html-voicekey-response","65","553591","0.0-4.61-0.61","l2j8l4ra8rdez1h","{""user_agent"":""Mozilla/5.0 (Macintosh; Intel Mac OS X 10_14_4) AppleWebKit/537.36 (KHTML, like Gecko) Chrome/74.0.3729.131 Safari/537.36"",""on_chrome"":true,""on_mobile"":false,""language"":""en-US"",""screen_resolution"":[1440,900],""platform"":""MacIntel"",""timezone"":""Europe/Berlin""}","2","2088.05000000014","","","1557908165148","9","","München","[]","München","true","false","2664.055000001099"
"","html-voicekey-response","66","561714","0.0-4.62-0.62","l2j8l4ra8rdez1h","{""user_agent"":""Mozilla/5.0 (Macintosh; Intel Mac OS X 10_14_4) AppleWebKit/537.36 (KHTML, like Gecko) Chrome/74.0.3729.131 Safari/537.36"",""on_chrome"":true,""on_mobile"":false,""language"":""en-US"",""screen_resolution"":[1440,900],""platform"":""MacIntel"",""timezone"":""Europe/Berlin""}","2","3194.5400000057184","","","1557908168416","5","","","[]","Aachen","false","false","4119.705000004615"
"","html-voicekey-response","67","572647","0.0-4.63-0.63","l2j8l4ra8rdez1h","{""user_agent"":""Mozilla/5.0 (Macintosh; Intel Mac OS X 10_14_4) AppleWebKit/537.36 (KHTML, like Gecko) Chrome/74.0.3729.131 Safari/537.36"",""on_chrome"":true,""on_mobile"":false,""language"":""en-US"",""screen_resolution"":[1440,900],""platform"":""MacIntel"",""timezone"":""Europe/Berlin""}","2","6188.100000008335","","","1557908176538","7","","","[]","Erfurt","false","false","6930.645000000368"
"","html-voicekey-response","68","579841","0.0-4.64-0.64","l2j8l4ra8rdez1h","{""user_agent"":""Mozilla/5.0 (Macintosh; Intel Mac OS X 10_14_4) AppleWebKit/537.36 (KHTML, like Gecko) Chrome/74.0.3729.131 Safari/537.36"",""on_chrome"":true,""on_mobile"":false,""language"":""en-US"",""screen_resolution"":[1440,900],""platform"":""MacIntel"",""timezone"":""Europe/Berlin""}","2","5916.925000006659","","","1557908187472","10","","Heidelberg","[]","Heidelberg","true","false","6591.075000003912"
"","html-voicekey-response","69","583683","0.0-4.65-0.65","l2j8l4ra8rdez1h","{""user_agent"":""Mozilla/5.0 (Macintosh; Intel Mac OS X 10_14_4) AppleWebKit/537.36 (KHTML, like Gecko) Chrome/74.0.3729.131 Safari/537.36"",""on_chrome"":true,""on_mobile"":false,""language"":""en-US"",""screen_resolution"":[1440,900],""platform"":""MacIntel"",""timezone"":""Europe/Berlin""}","2","2345.850000006822","","","1557908194667","4","","Würzburg","[]","Würzburg","true","false","3237.5150000007125"
"","html-voicekey-response","70","587282","0.0-4.66-0.66","l2j8l4ra8rdez1h","{""user_agent"":""Mozilla/5.0 (Macintosh; Intel Mac OS X 10_14_4) AppleWebKit/537.36 (KHTML, like Gecko) Chrome/74.0.3729.131 Safari/537.36"",""on_chrome"":true,""on_mobile"":false,""language"":""en-US"",""screen_resolution"":[1440,900],""platform"":""MacIntel"",""timezone"":""Europe/Berlin""}","2","2554.2550000044052","","","1557908198508","8","","Gotha","[]","Gotha","true","false","2996.1049999983516"
"","html-voicekey-response","71","599699","0.0-4.67-0.67","l2j8l4ra8rdez1h","{""user_agent"":""Mozilla/5.0 (Macintosh; Intel Mac OS X 10_14_4) AppleWebKit/537.36 (KHTML, like Gecko) Chrome/74.0.3729.131 Safari/537.36"",""on_chrome"":true,""on_mobile"":false,""language"":""en-US"",""screen_resolution"":[1440,900],""platform"":""MacIntel"",""timezone"":""Europe/Berlin""}","2","7654.434999998402","","","1557908202107","7","","","[]","Erfurt","false","false","8414.000000004307"
"","html-voicekey-response","72","607564","0.0-4.68-0.68","l2j8l4ra8rdez1h","{""user_agent"":""Mozilla/5.0 (Macintosh; Intel Mac OS X 10_14_4) AppleWebKit/537.36 (KHTML, like Gecko) Chrome/74.0.3729.131 Safari/537.36"",""on_chrome"":true,""on_mobile"":false,""language"":""en-US"",""screen_resolution"":[1440,900],""platform"":""MacIntel"",""timezone"":""Europe/Berlin""}","2","2903.725000005425","","","1557908214523","5","","","[]","Aachen","false","false","3862.9300000029616"
"","html-voicekey-response","73","610523","0.0-4.69-0.69","l2j8l4ra8rdez1h","{""user_agent"":""Mozilla/5.0 (Macintosh; Intel Mac OS X 10_14_4) AppleWebKit/537.36 (KHTML, like Gecko) Chrome/74.0.3729.131 Safari/537.36"",""on_chrome"":true,""on_mobile"":false,""language"":""en-US"",""screen_resolution"":[1440,900],""platform"":""MacIntel"",""timezone"":""Europe/Berlin""}","2","1805.1349999967265","","","1557908222388","1","","Magdeburg","[]","Magdeburg","true","false","2356.419999996433"
"","html-voicekey-response","74","620022","0.0-4.70-0.70","l2j8l4ra8rdez1h","{""user_agent"":""Mozilla/5.0 (Macintosh; Intel Mac OS X 10_14_4) AppleWebKit/537.36 (KHTML, like Gecko) Chrome/74.0.3729.131 Safari/537.36"",""on_chrome"":true,""on_mobile"":false,""language"":""en-US"",""screen_resolution"":[1440,900],""platform"":""MacIntel"",""timezone"":""Europe/Berlin""}","2","4487.724999993434","","","1557908225348","7","","","[]","Erfurt","false","false","5496.440000002622"
"","html-voicekey-response","75","629283","0.0-4.71-0.71","l2j8l4ra8rdez1h","{""user_agent"":""Mozilla/5.0 (Macintosh; Intel Mac OS X 10_14_4) AppleWebKit/537.36 (KHTML, like Gecko) Chrome/74.0.3729.131 Safari/537.36"",""on_chrome"":true,""on_mobile"":false,""language"":""en-US"",""screen_resolution"":[1440,900],""platform"":""MacIntel"",""timezone"":""Europe/Berlin""}","2","4554.120000009634","","","1557908234848","3","","","[]","Ingolstadt","false","false","5257.920000003651"
"","html-voicekey-response","76","640767","0.0-4.72-0.72","l2j8l4ra8rdez1h","{""user_agent"":""Mozilla/5.0 (Macintosh; Intel Mac OS X 10_14_4) AppleWebKit/537.36 (KHTML, like Gecko) Chrome/74.0.3729.131 Safari/537.36"",""on_chrome"":true,""on_mobile"":false,""language"":""en-US"",""screen_resolution"":[1440,900],""platform"":""MacIntel"",""timezone"":""Europe/Berlin""}","2","6754.635000013723","","","1557908244108","5","","","[]","Aachen","false","false","7480.055000007269"
"","html-voicekey-response","77","655927","0.0-4.73-0.73","l2j8l4ra8rdez1h","{""user_agent"":""Mozilla/5.0 (Macintosh; Intel Mac OS X 10_14_4) AppleWebKit/537.36 (KHTML, like Gecko) Chrome/74.0.3729.131 Safari/537.36"",""on_chrome"":true,""on_mobile"":false,""language"":""en-US"",""screen_resolution"":[1440,900],""platform"":""MacIntel"",""timezone"":""Europe/Berlin""}","2","10697.804999997816","","","1557908255592","7","","","[]","Erfurt","false","false","11156.505000006291"
"","html-voicekey-response","78","663154","0.0-4.74-0.74","l2j8l4ra8rdez1h","{""user_agent"":""Mozilla/5.0 (Macintosh; Intel Mac OS X 10_14_4) AppleWebKit/537.36 (KHTML, like Gecko) Chrome/74.0.3729.131 Safari/537.36"",""on_chrome"":true,""on_mobile"":false,""language"":""en-US"",""screen_resolution"":[1440,900],""platform"":""MacIntel"",""timezone"":""Europe/Berlin""}","2","100","","","1557908270752","5","","","[]","Aachen","false","false","3223.8450000004377"
"","html-voicekey-response","79","670438","0.0-4.75-0.75","l2j8l4ra8rdez1h","{""user_agent"":""Mozilla/5.0 (Macintosh; Intel Mac OS X 10_14_4) AppleWebKit/537.36 (KHTML, like Gecko) Chrome/74.0.3729.131 Safari/537.36"",""on_chrome"":true,""on_mobile"":false,""language"":""en-US"",""screen_resolution"":[1440,900],""platform"":""MacIntel"",""timezone"":""Europe/Berlin""}","2","100","","","1557908277979","7","","Erfurt","[]","Erfurt","true","false","6680.935000011232"
"","html-voicekey-response","80","675912","0.0-4.76-0.76","l2j8l4ra8rdez1h","{""user_agent"":""Mozilla/5.0 (Macintosh; Intel Mac OS X 10_14_4) AppleWebKit/537.36 (KHTML, like Gecko) Chrome/74.0.3729.131 Safari/537.36"",""on_chrome"":true,""on_mobile"":false,""language"":""en-US"",""screen_resolution"":[1440,900],""platform"":""MacIntel"",""timezone"":""Europe/Berlin""}","2","4278.02500000128","","","1557908285263","8","","Gotha","[]","Gotha","true","false","4870.940000007977"
"","html-voicekey-response","81","689890","0.0-4.77-0.77","l2j8l4ra8rdez1h","{""user_agent"":""Mozilla/5.0 (Macintosh; Intel Mac OS X 10_14_4) AppleWebKit/537.36 (KHTML, like Gecko) Chrome/74.0.3729.131 Safari/537.36"",""on_chrome"":true,""on_mobile"":false,""language"":""en-US"",""screen_resolution"":[1440,900],""platform"":""MacIntel"",""timezone"":""Europe/Berlin""}","2","9330.869999999622","","","1557908290738","10","","","[]","Heidelberg","false","false","9973.630000007688"
"","html-voicekey-response","82","697830","0.0-4.78-0.78","l2j8l4ra8rdez1h","{""user_agent"":""Mozilla/5.0 (Macintosh; Intel Mac OS X 10_14_4) AppleWebKit/537.36 (KHTML, like Gecko) Chrome/74.0.3729.131 Safari/537.36"",""on_chrome"":true,""on_mobile"":false,""language"":""en-US"",""screen_resolution"":[1440,900],""platform"":""MacIntel"",""timezone"":""Europe/Berlin""}","2","3044.2450000062586","","","1557908304715","5","","","[]","Aachen","false","false","3936.390000002575"
"","html-voicekey-response","83","703904","0.0-4.79-0.79","l2j8l4ra8rdez1h","{""user_agent"":""Mozilla/5.0 (Macintosh; Intel Mac OS X 10_14_4) AppleWebKit/537.36 (KHTML, like Gecko) Chrome/74.0.3729.131 Safari/537.36"",""on_chrome"":true,""on_mobile"":false,""language"":""en-US"",""screen_resolution"":[1440,900],""platform"":""MacIntel"",""timezone"":""Europe/Berlin""}","2","1287.3049999996788","","","1557908312655","4","","","[]","Würzburg","false","false","2071.3099999993574"
"","html-voicekey-response","84","713603","0.0-4.80-0.80","l2j8l4ra8rdez1h","{""user_agent"":""Mozilla/5.0 (Macintosh; Intel Mac OS X 10_14_4) AppleWebKit/537.36 (KHTML, like Gecko) Chrome/74.0.3729.131 Safari/537.36"",""on_chrome"":true,""on_mobile"":false,""language"":""en-US"",""screen_resolution"":[1440,900],""platform"":""MacIntel"",""timezone"":""Europe/Berlin""}","2","4886.574999991199","","","1557908318730","7","","","[]","Erfurt","false","false","5694.694999998319"
"","html-voicekey-response","85","720344","0.0-4.81-0.81","l2j8l4ra8rdez1h","{""user_agent"":""Mozilla/5.0 (Macintosh; Intel Mac OS X 10_14_4) AppleWebKit/537.36 (KHTML, like Gecko) Chrome/74.0.3729.131 Safari/537.36"",""on_chrome"":true,""on_mobile"":false,""language"":""en-US"",""screen_resolution"":[1440,900],""platform"":""MacIntel"",""timezone"":""Europe/Berlin""}","2","1845.6649999951246","","","1557908328428","5","","","[]","Aachen","false","false","2737.9950000031386"
"","html-voicekey-response","86","724372","0.0-4.82-0.82","l2j8l4ra8rdez1h","{""user_agent"":""Mozilla/5.0 (Macintosh; Intel Mac OS X 10_14_4) AppleWebKit/537.36 (KHTML, like Gecko) Chrome/74.0.3729.131 Safari/537.36"",""on_chrome"":true,""on_mobile"":false,""language"":""en-US"",""screen_resolution"":[1440,900],""platform"":""MacIntel"",""timezone"":""Europe/Berlin""}","2","2686.550000007474","","","1557908335171","7","","Erfurt","[]","Erfurt","true","false","3423.1800000125077"
"","html-voicekey-response","87","728555","0.0-4.83-0.83","l2j8l4ra8rdez1h","{""user_agent"":""Mozilla/5.0 (Macintosh; Intel Mac OS X 10_14_4) AppleWebKit/537.36 (KHTML, like Gecko) Chrome/74.0.3729.131 Safari/537.36"",""on_chrome"":true,""on_mobile"":false,""language"":""en-US"",""screen_resolution"":[1440,900],""platform"":""MacIntel"",""timezone"":""Europe/Berlin""}","2","2870.1249999956694","","","1557908339198","8","","Gotha","[]","Gotha","true","false","3579.330000007758"
"","html-voicekey-response","88","740640","0.0-4.84-0.84","l2j8l4ra8rdez1h","{""user_agent"":""Mozilla/5.0 (Macintosh; Intel Mac OS X 10_14_4) AppleWebKit/537.36 (KHTML, like Gecko) Chrome/74.0.3729.131 Safari/537.36"",""on_chrome"":true,""on_mobile"":false,""language"":""en-US"",""screen_resolution"":[1440,900],""platform"":""MacIntel"",""timezone"":""Europe/Berlin""}","2","6070.344999994477","","","1557908343381","5","","","[]","Aachen","false","false","8079.854999989038"
"","html-voicekey-response","89","751383","0.0-4.85-0.85","l2j8l4ra8rdez1h","{""user_agent"":""Mozilla/5.0 (Macintosh; Intel Mac OS X 10_14_4) AppleWebKit/537.36 (KHTML, like Gecko) Chrome/74.0.3729.131 Safari/537.36"",""on_chrome"":true,""on_mobile"":false,""language"":""en-US"",""screen_resolution"":[1440,900],""platform"":""MacIntel"",""timezone"":""Europe/Berlin""}","2","4295.955000003078","","","1557908355466","4","","","[]","Würzburg","false","false","6737.495000008494"
"","html-voicekey-response","90","754906","0.0-4.86-0.86","l2j8l4ra8rdez1h","{""user_agent"":""Mozilla/5.0 (Macintosh; Intel Mac OS X 10_14_4) AppleWebKit/537.36 (KHTML, like Gecko) Chrome/74.0.3729.131 Safari/537.36"",""on_chrome"":true,""on_mobile"":false,""language"":""en-US"",""screen_resolution"":[1440,900],""platform"":""MacIntel"",""timezone"":""Europe/Berlin""}","2","2443.389999994752","","","1557908366210","7","","Erfurt","[]","Erfurt","true","false","2918.2699999946635"
"","html-voicekey-response","91","766022","0.0-4.87-0.87","l2j8l4ra8rdez1h","{""user_agent"":""Mozilla/5.0 (Macintosh; Intel Mac OS X 10_14_4) AppleWebKit/537.36 (KHTML, like Gecko) Chrome/74.0.3729.131 Safari/537.36"",""on_chrome"":true,""on_mobile"":false,""language"":""en-US"",""screen_resolution"":[1440,900],""platform"":""MacIntel"",""timezone"":""Europe/Berlin""}","2","6353.790000002691","","","1557908369732","5","","","[]","Aachen","false","false","7112.565000003087"
"","html-voicekey-response","92","770167","0.0-4.88-0.88","l2j8l4ra8rdez1h","{""user_agent"":""Mozilla/5.0 (Macintosh; Intel Mac OS X 10_14_4) AppleWebKit/537.36 (KHTML, like Gecko) Chrome/74.0.3729.131 Safari/537.36"",""on_chrome"":true,""on_mobile"":false,""language"":""en-US"",""screen_resolution"":[1440,900],""platform"":""MacIntel"",""timezone"":""Europe/Berlin""}","2","2381.9749999909895","","","1557908380848","10","","Heidelberg","[]","Heidelberg","true","false","3541.174999991199"
"","html-voicekey-response","93","782151","0.0-4.89-0.89","l2j8l4ra8rdez1h","{""user_agent"":""Mozilla/5.0 (Macintosh; Intel Mac OS X 10_14_4) AppleWebKit/537.36 (KHTML, like Gecko) Chrome/74.0.3729.131 Safari/537.36"",""on_chrome"":true,""on_mobile"":false,""language"":""en-US"",""screen_resolution"":[1440,900],""platform"":""MacIntel"",""timezone"":""Europe/Berlin""}","2","7069.654999993718","","","1557908384994","5","","","[]","Aachen","false","false","7978.495000003022"
"","html-voicekey-response","94","785145","0.0-4.90-0.90","l2j8l4ra8rdez1h","{""user_agent"":""Mozilla/5.0 (Macintosh; Intel Mac OS X 10_14_4) AppleWebKit/537.36 (KHTML, like Gecko) Chrome/74.0.3729.131 Safari/537.36"",""on_chrome"":true,""on_mobile"":false,""language"":""en-US"",""screen_resolution"":[1440,900],""platform"":""MacIntel"",""timezone"":""Europe/Berlin""}","2","1897.9399999896764","","","1557908396977","2","","Berlin","[]","Berlin","true","false","2389.7199999919394"
"","html-voicekey-response","95","790795","0.0-4.91-0.91","l2j8l4ra8rdez1h","{""user_agent"":""Mozilla/5.0 (Macintosh; Intel Mac OS X 10_14_4) AppleWebKit/537.36 (KHTML, like Gecko) Chrome/74.0.3729.131 Safari/537.36"",""on_chrome"":true,""on_mobile"":false,""language"":""en-US"",""screen_resolution"":[1440,900],""platform"":""MacIntel"",""timezone"":""Europe/Berlin""}","2","4403.159999996051","","","1557908399972","5","","Aachen","[]","Aachen","true","false","5044.25999999512"
"","html-voicekey-response","96","803239","0.0-4.92-0.92","l2j8l4ra8rdez1h","{""user_agent"":""Mozilla/5.0 (Macintosh; Intel Mac OS X 10_14_4) AppleWebKit/537.36 (KHTML, like Gecko) Chrome/74.0.3729.131 Safari/537.36"",""on_chrome"":true,""on_mobile"":false,""language"":""en-US"",""screen_resolution"":[1440,900],""platform"":""MacIntel"",""timezone"":""Europe/Berlin""}","2","7463.635000001732","","","1557908405622","7","","","[]","Erfurt","false","false","8438.679999992019"
"","html-voicekey-response","97","812213","0.0-4.93-0.93","l2j8l4ra8rdez1h","{""user_agent"":""Mozilla/5.0 (Macintosh; Intel Mac OS X 10_14_4) AppleWebKit/537.36 (KHTML, like Gecko) Chrome/74.0.3729.131 Safari/537.36"",""on_chrome"":true,""on_mobile"":false,""language"":""en-US"",""screen_resolution"":[1440,900],""platform"":""MacIntel"",""timezone"":""Europe/Berlin""}","2","4086.904999998142","","","1557908418065","5","","","[]","Aachen","false","false","4970.595000006142"
"","html-voicekey-response","98","821397","0.0-4.94-0.94","l2j8l4ra8rdez1h","{""user_agent"":""Mozilla/5.0 (Macintosh; Intel Mac OS X 10_14_4) AppleWebKit/537.36 (KHTML, like Gecko) Chrome/74.0.3729.131 Safari/537.36"",""on_chrome"":true,""on_mobile"":false,""language"":""en-US"",""screen_resolution"":[1440,900],""platform"":""MacIntel"",""timezone"":""Europe/Berlin""}","2","4402.590000006812","","","1557908427040","8","","","[]","Gotha","false","false","5177.980000007665"
"","html-voicekey-response","99","836953","0.0-4.95-0.95","l2j8l4ra8rdez1h","{""user_agent"":""Mozilla/5.0 (Macintosh; Intel Mac OS X 10_14_4) AppleWebKit/537.36 (KHTML, like Gecko) Chrome/74.0.3729.131 Safari/537.36"",""on_chrome"":true,""on_mobile"":false,""language"":""en-US"",""screen_resolution"":[1440,900],""platform"":""MacIntel"",""timezone"":""Europe/Berlin""}","2","10697.515000001504","","","1557908436223","5","","","[]","Aachen","false","false","11552.175000004354"
"","html-voicekey-response","100","849921","0.0-4.96-0.96","l2j8l4ra8rdez1h","{""user_agent"":""Mozilla/5.0 (Macintosh; Intel Mac OS X 10_14_4) AppleWebKit/537.36 (KHTML, like Gecko) Chrome/74.0.3729.131 Safari/537.36"",""on_chrome"":true,""on_mobile"":false,""language"":""en-US"",""screen_resolution"":[1440,900],""platform"":""MacIntel"",""timezone"":""Europe/Berlin""}","2","6686.810000008181","","","1557908451779","7","","","[]","Erfurt","false","false","8962.410000007367"
