"value","trial_type","trial_index","time_elapsed","internal_node_id","subject","browser_info","participant_number","rt","responses","view_history","presentation_start_time","id","text","response","keypresses","answer","correct","study","experimenter_rt"
"","call-function","0","4","0.0-0.0","pxwxhfjqrj1rk1r","{""user_agent"":""Mozilla/5.0 (Macintosh; Intel Mac OS X 10_14_4) AppleWebKit/537.36 (KHTML, like Gecko) Chrome/74.0.3729.169 Safari/537.36"",""on_chrome"":true,""on_mobile"":false,""language"":""en-US"",""screen_resolution"":[1440,900],""platform"":""MacIntel"",""timezone"":""Europe/Berlin""}","20","","","","","","","","","","","",""
"","survey-text","1","5939","0.0-1.0","pxwxhfjqrj1rk1r","{""user_agent"":""Mozilla/5.0 (Macintosh; Intel Mac OS X 10_14_4) AppleWebKit/537.36 (KHTML, like Gecko) Chrome/74.0.3729.169 Safari/537.36"",""on_chrome"":true,""on_mobile"":false,""language"":""en-US"",""screen_resolution"":[1440,900],""platform"":""MacIntel"",""timezone"":""Europe/Berlin""}","20","5934","{""Q0"":""20""}","","","","","","","","","",""
"","instructions","2","206222","0.0-2.0","pxwxhfjqrj1rk1r","{""user_agent"":""Mozilla/5.0 (Macintosh; Intel Mac OS X 10_14_4) AppleWebKit/537.36 (KHTML, like Gecko) Chrome/74.0.3729.169 Safari/537.36"",""on_chrome"":true,""on_mobile"":false,""language"":""en-US"",""screen_resolution"":[1440,900],""platform"":""MacIntel"",""timezone"":""Europe/Berlin""}","20","200282","","[{""page_index"":0,""viewing_time"":200281}]","","","","","","","","",""
"","call-function","3","206222","0.0-3.0","pxwxhfjqrj1rk1r","{""user_agent"":""Mozilla/5.0 (Macintosh; Intel Mac OS X 10_14_4) AppleWebKit/537.36 (KHTML, like Gecko) Chrome/74.0.3729.169 Safari/537.36"",""on_chrome"":true,""on_mobile"":false,""language"":""en-US"",""screen_resolution"":[1440,900],""platform"":""MacIntel"",""timezone"":""Europe/Berlin""}","20","","","","","","","","","","","",""
"","html-voicekey-response","4","212291","0.0-4.0-0.0","pxwxhfjqrj1rk1r","{""user_agent"":""Mozilla/5.0 (Macintosh; Intel Mac OS X 10_14_4) AppleWebKit/537.36 (KHTML, like Gecko) Chrome/74.0.3729.169 Safari/537.36"",""on_chrome"":true,""on_mobile"":false,""language"":""en-US"",""screen_resolution"":[1440,900],""platform"":""MacIntel"",""timezone"":""Europe/Berlin""}","20","2608.7500000083587","","","1558611643551","1","","Magdeburg","[]","Magdeburg","true","true","5463.9400000014575"
"","html-voicekey-response","5","216255","0.0-4.1-0.1","pxwxhfjqrj1rk1r","{""user_agent"":""Mozilla/5.0 (Macintosh; Intel Mac OS X 10_14_4) AppleWebKit/537.36 (KHTML, like Gecko) Chrome/74.0.3729.169 Safari/537.36"",""on_chrome"":true,""on_mobile"":false,""language"":""en-US"",""screen_resolution"":[1440,900],""platform"":""MacIntel"",""timezone"":""Europe/Berlin""}","20","2750.15499999593","","","1558611649622","1","","Magdeburg","[]","Magdeburg","true","false","3359.3649999966146"
"","html-voicekey-response","6","220281","0.0-4.2-0.2","pxwxhfjqrj1rk1r","{""user_agent"":""Mozilla/5.0 (Macintosh; Intel Mac OS X 10_14_4) AppleWebKit/537.36 (KHTML, like Gecko) Chrome/74.0.3729.169 Safari/537.36"",""on_chrome"":true,""on_mobile"":false,""language"":""en-US"",""screen_resolution"":[1440,900],""platform"":""MacIntel"",""timezone"":""Europe/Berlin""}","20","2821.8549999963493","","","1558611653583","2","","Berlin","[]","Berlin","true","true","3423.274999993737"
"","html-voicekey-response","7","223381","0.0-4.3-0.3","pxwxhfjqrj1rk1r","{""user_agent"":""Mozilla/5.0 (Macintosh; Intel Mac OS X 10_14_4) AppleWebKit/537.36 (KHTML, like Gecko) Chrome/74.0.3729.169 Safari/537.36"",""on_chrome"":true,""on_mobile"":false,""language"":""en-US"",""screen_resolution"":[1440,900],""platform"":""MacIntel"",""timezone"":""Europe/Berlin""}","20","2005.0600000048057","","","1558611657609","2","","Berlin","[]","Berlin","true","false","2497.755000003963"
"","html-voicekey-response","8","227630","0.0-4.4-0.4","pxwxhfjqrj1rk1r","{""user_agent"":""Mozilla/5.0 (Macintosh; Intel Mac OS X 10_14_4) AppleWebKit/537.36 (KHTML, like Gecko) Chrome/74.0.3729.169 Safari/537.36"",""on_chrome"":true,""on_mobile"":false,""language"":""en-US"",""screen_resolution"":[1440,900],""platform"":""MacIntel"",""timezone"":""Europe/Berlin""}","20","2854.7100000085543","","","1558611660709","3","","Ingolstadt","[]","Ingolstadt","true","true","3646.755000008852"
"","html-voicekey-response","9","234687","0.0-4.5-0.5","pxwxhfjqrj1rk1r","{""user_agent"":""Mozilla/5.0 (Macintosh; Intel Mac OS X 10_14_4) AppleWebKit/537.36 (KHTML, like Gecko) Chrome/74.0.3729.169 Safari/537.36"",""on_chrome"":true,""on_mobile"":false,""language"":""en-US"",""screen_resolution"":[1440,900],""platform"":""MacIntel"",""timezone"":""Europe/Berlin""}","20","5978.249999994505","","","1558611664959","4","","Würzburg","[]","Würzburg","true","true","6454.104999997071"
"","html-voicekey-response","10","238270","0.0-4.6-0.6","pxwxhfjqrj1rk1r","{""user_agent"":""Mozilla/5.0 (Macintosh; Intel Mac OS X 10_14_4) AppleWebKit/537.36 (KHTML, like Gecko) Chrome/74.0.3729.169 Safari/537.36"",""on_chrome"":true,""on_mobile"":false,""language"":""en-US"",""screen_resolution"":[1440,900],""platform"":""MacIntel"",""timezone"":""Europe/Berlin""}","20","2122.490000003227","","","1558611672015","3","","Ingolstadt","[]","Ingolstadt","true","false","2981.180000002496"
"","html-voicekey-response","11","241711","0.0-4.7-0.7","pxwxhfjqrj1rk1r","{""user_agent"":""Mozilla/5.0 (Macintosh; Intel Mac OS X 10_14_4) AppleWebKit/537.36 (KHTML, like Gecko) Chrome/74.0.3729.169 Safari/537.36"",""on_chrome"":true,""on_mobile"":false,""language"":""en-US"",""screen_resolution"":[1440,900],""platform"":""MacIntel"",""timezone"":""Europe/Berlin""}","20","2113.0399999909337","","","1558611675599","4","","Würzburg","[]","Würzburg","true","false","2838.864999997895"
"","html-voicekey-response","12","245795","0.0-4.8-0.8","pxwxhfjqrj1rk1r","{""user_agent"":""Mozilla/5.0 (Macintosh; Intel Mac OS X 10_14_4) AppleWebKit/537.36 (KHTML, like Gecko) Chrome/74.0.3729.169 Safari/537.36"",""on_chrome"":true,""on_mobile"":false,""language"":""en-US"",""screen_resolution"":[1440,900],""platform"":""MacIntel"",""timezone"":""Europe/Berlin""}","20","2787.8699999945006","","","1558611679039","5","","Aachen","[]","Aachen","true","true","3481.8150000064634"
"","html-voicekey-response","13","249245","0.0-4.9-0.9","pxwxhfjqrj1rk1r","{""user_agent"":""Mozilla/5.0 (Macintosh; Intel Mac OS X 10_14_4) AppleWebKit/537.36 (KHTML, like Gecko) Chrome/74.0.3729.169 Safari/537.36"",""on_chrome"":true,""on_mobile"":false,""language"":""en-US"",""screen_resolution"":[1440,900],""platform"":""MacIntel"",""timezone"":""Europe/Berlin""}","20","2120.5050000078977","","","1558611683124","6","","Dresden","[]","Dresden","true","true","2846.109999998589"
"","html-voicekey-response","14","252155","0.0-4.10-0.10","pxwxhfjqrj1rk1r","{""user_agent"":""Mozilla/5.0 (Macintosh; Intel Mac OS X 10_14_4) AppleWebKit/537.36 (KHTML, like Gecko) Chrome/74.0.3729.169 Safari/537.36"",""on_chrome"":true,""on_mobile"":false,""language"":""en-US"",""screen_resolution"":[1440,900],""platform"":""MacIntel"",""timezone"":""Europe/Berlin""}","20","1532.6500000026776","","","1558611686573","5","","Aachen","[]","Aachen","true","false","2308.165000009467"
"","html-voicekey-response","15","254938","0.0-4.11-0.11","pxwxhfjqrj1rk1r","{""user_agent"":""Mozilla/5.0 (Macintosh; Intel Mac OS X 10_14_4) AppleWebKit/537.36 (KHTML, like Gecko) Chrome/74.0.3729.169 Safari/537.36"",""on_chrome"":true,""on_mobile"":false,""language"":""en-US"",""screen_resolution"":[1440,900],""platform"":""MacIntel"",""timezone"":""Europe/Berlin""}","20","1289.0799999966753","","","1558611689483","6","","Dresden","[]","Dresden","true","false","2181.6450000042096"
"","html-voicekey-response","16","260488","0.0-4.12-0.12","pxwxhfjqrj1rk1r","{""user_agent"":""Mozilla/5.0 (Macintosh; Intel Mac OS X 10_14_4) AppleWebKit/537.36 (KHTML, like Gecko) Chrome/74.0.3729.169 Safari/537.36"",""on_chrome"":true,""on_mobile"":false,""language"":""en-US"",""screen_resolution"":[1440,900],""platform"":""MacIntel"",""timezone"":""Europe/Berlin""}","20","4188.345000011241","","","1558611692267","7","","Erfurt","[]","Erfurt","true","true","4947.469999999157"
"","html-voicekey-response","17","263413","0.0-4.13-0.13","pxwxhfjqrj1rk1r","{""user_agent"":""Mozilla/5.0 (Macintosh; Intel Mac OS X 10_14_4) AppleWebKit/537.36 (KHTML, like Gecko) Chrome/74.0.3729.169 Safari/537.36"",""on_chrome"":true,""on_mobile"":false,""language"":""en-US"",""screen_resolution"":[1440,900],""platform"":""MacIntel"",""timezone"":""Europe/Berlin""}","20","1647.2350000056672","","","1558611697816","1","","Magdeburg","[]","Magdeburg","true","false","2322.635000004084"
"","html-voicekey-response","18","267112","0.0-4.14-0.14","pxwxhfjqrj1rk1r","{""user_agent"":""Mozilla/5.0 (Macintosh; Intel Mac OS X 10_14_4) AppleWebKit/537.36 (KHTML, like Gecko) Chrome/74.0.3729.169 Safari/537.36"",""on_chrome"":true,""on_mobile"":false,""language"":""en-US"",""screen_resolution"":[1440,900],""platform"":""MacIntel"",""timezone"":""Europe/Berlin""}","20","2370.7850000008243","","","1558611700742","7","","Erfurt","[]","Erfurt","true","false","3096.1200000019744"
"","html-voicekey-response","19","269963","0.0-4.15-0.15","pxwxhfjqrj1rk1r","{""user_agent"":""Mozilla/5.0 (Macintosh; Intel Mac OS X 10_14_4) AppleWebKit/537.36 (KHTML, like Gecko) Chrome/74.0.3729.169 Safari/537.36"",""on_chrome"":true,""on_mobile"":false,""language"":""en-US"",""screen_resolution"":[1440,900],""platform"":""MacIntel"",""timezone"":""Europe/Berlin""}","20","1689.1300000077813","","","1558611704441","2","","Berlin","[]","Berlin","true","false","2247.9650000022957"
"","html-voicekey-response","20","275921","0.0-4.16-0.16","pxwxhfjqrj1rk1r","{""user_agent"":""Mozilla/5.0 (Macintosh; Intel Mac OS X 10_14_4) AppleWebKit/537.36 (KHTML, like Gecko) Chrome/74.0.3729.169 Safari/537.36"",""on_chrome"":true,""on_mobile"":false,""language"":""en-US"",""screen_resolution"":[1440,900],""platform"":""MacIntel"",""timezone"":""Europe/Berlin""}","20","4713.234999997285","","","1558611707291","8","","Gotha","[]","Gotha","true","true","5356.055000011111"
"","html-voicekey-response","21","279753","0.0-4.17-0.17","pxwxhfjqrj1rk1r","{""user_agent"":""Mozilla/5.0 (Macintosh; Intel Mac OS X 10_14_4) AppleWebKit/537.36 (KHTML, like Gecko) Chrome/74.0.3729.169 Safari/537.36"",""on_chrome"":true,""on_mobile"":false,""language"":""en-US"",""screen_resolution"":[1440,900],""platform"":""MacIntel"",""timezone"":""Europe/Berlin""}","20","2587.3599999993808","","","1558611713250","9","","München","[]","München","true","true","3229.5200000080513"
"","html-voicekey-response","22","283161","0.0-4.18-0.18","pxwxhfjqrj1rk1r","{""user_agent"":""Mozilla/5.0 (Macintosh; Intel Mac OS X 10_14_4) AppleWebKit/537.36 (KHTML, like Gecko) Chrome/74.0.3729.169 Safari/537.36"",""on_chrome"":true,""on_mobile"":false,""language"":""en-US"",""screen_resolution"":[1440,900],""platform"":""MacIntel"",""timezone"":""Europe/Berlin""}","20","1972.1649999936112","","","1558611717082","8","","Gotha","[]","Gotha","true","false","2804.854999994859"
"","html-voicekey-response","23","286112","0.0-4.19-0.19","pxwxhfjqrj1rk1r","{""user_agent"":""Mozilla/5.0 (Macintosh; Intel Mac OS X 10_14_4) AppleWebKit/537.36 (KHTML, like Gecko) Chrome/74.0.3729.169 Safari/537.36"",""on_chrome"":true,""on_mobile"":false,""language"":""en-US"",""screen_resolution"":[1440,900],""platform"":""MacIntel"",""timezone"":""Europe/Berlin""}","20","1656.4500000038884","","","1558611720490","9","","München","[]","München","true","false","2348.245000001043"
"","html-voicekey-response","24","295696","0.0-4.20-0.20","pxwxhfjqrj1rk1r","{""user_agent"":""Mozilla/5.0 (Macintosh; Intel Mac OS X 10_14_4) AppleWebKit/537.36 (KHTML, like Gecko) Chrome/74.0.3729.169 Safari/537.36"",""on_chrome"":true,""on_mobile"":false,""language"":""en-US"",""screen_resolution"":[1440,900],""platform"":""MacIntel"",""timezone"":""Europe/Berlin""}","20","4037.365000005439","","","1558611723441","3","","","[]","Ingolstadt","false","false","5579.685000004247"
"","html-voicekey-response","25","299019","0.0-4.21-0.21","pxwxhfjqrj1rk1r","{""user_agent"":""Mozilla/5.0 (Macintosh; Intel Mac OS X 10_14_4) AppleWebKit/537.36 (KHTML, like Gecko) Chrome/74.0.3729.169 Safari/537.36"",""on_chrome"":true,""on_mobile"":false,""language"":""en-US"",""screen_resolution"":[1440,900],""platform"":""MacIntel"",""timezone"":""Europe/Berlin""}","20","778.1550000016344","","","1558611733025","4","","Würzburg","[]","Würzburg","true","false","2720.535000000382"
"","html-voicekey-response","26","302188","0.0-4.22-0.22","pxwxhfjqrj1rk1r","{""user_agent"":""Mozilla/5.0 (Macintosh; Intel Mac OS X 10_14_4) AppleWebKit/537.36 (KHTML, like Gecko) Chrome/74.0.3729.169 Safari/537.36"",""on_chrome"":true,""on_mobile"":false,""language"":""en-US"",""screen_resolution"":[1440,900],""platform"":""MacIntel"",""timezone"":""Europe/Berlin""}","20","1838.8999999968569","","","1558611736348","5","","Aachen","[]","Aachen","true","false","2564.4049999973504"
"","html-voicekey-response","27","304573","0.0-4.23-0.23","pxwxhfjqrj1rk1r","{""user_agent"":""Mozilla/5.0 (Macintosh; Intel Mac OS X 10_14_4) AppleWebKit/537.36 (KHTML, like Gecko) Chrome/74.0.3729.169 Safari/537.36"",""on_chrome"":true,""on_mobile"":false,""language"":""en-US"",""screen_resolution"":[1440,900],""platform"":""MacIntel"",""timezone"":""Europe/Berlin""}","20","1138.9500000021421","","","1558611739518","6","","Dresden","[]","Dresden","true","false","1781.779999990249"
"","html-voicekey-response","28","309155","0.0-4.24-0.24","pxwxhfjqrj1rk1r","{""user_agent"":""Mozilla/5.0 (Macintosh; Intel Mac OS X 10_14_4) AppleWebKit/537.36 (KHTML, like Gecko) Chrome/74.0.3729.169 Safari/537.36"",""on_chrome"":true,""on_mobile"":false,""language"":""en-US"",""screen_resolution"":[1440,900],""platform"":""MacIntel"",""timezone"":""Europe/Berlin""}","20","3204.644999999646","","","1558611741902","10","","Heidelberg","[]","Heidelberg","true","true","3979.3099999951664"
"","html-voicekey-response","29","314557","0.0-4.25-0.25","pxwxhfjqrj1rk1r","{""user_agent"":""Mozilla/5.0 (Macintosh; Intel Mac OS X 10_14_4) AppleWebKit/537.36 (KHTML, like Gecko) Chrome/74.0.3729.169 Safari/537.36"",""on_chrome"":true,""on_mobile"":false,""language"":""en-US"",""screen_resolution"":[1440,900],""platform"":""MacIntel"",""timezone"":""Europe/Berlin""}","20","3689.909999995353","","","1558611746484","11","","Alfeld","[]","Alfeld","true","true","4798.114999997779"
"","html-voicekey-response","30","325196","0.0-4.26-0.26","pxwxhfjqrj1rk1r","{""user_agent"":""Mozilla/5.0 (Macintosh; Intel Mac OS X 10_14_4) AppleWebKit/537.36 (KHTML, like Gecko) Chrome/74.0.3729.169 Safari/537.36"",""on_chrome"":true,""on_mobile"":false,""language"":""en-US"",""screen_resolution"":[1440,900],""platform"":""MacIntel"",""timezone"":""Europe/Berlin""}","20","5493.940000009234","","","1558611751887","10","","","[]","Heidelberg","false","false","6634.4650000100955"
"","html-voicekey-response","31","332014","0.0-4.27-0.27","pxwxhfjqrj1rk1r","{""user_agent"":""Mozilla/5.0 (Macintosh; Intel Mac OS X 10_14_4) AppleWebKit/537.36 (KHTML, like Gecko) Chrome/74.0.3729.169 Safari/537.36"",""on_chrome"":true,""on_mobile"":false,""language"":""en-US"",""screen_resolution"":[1440,900],""platform"":""MacIntel"",""timezone"":""Europe/Berlin""}","20","Infinity","","","1558611762526","11","","Alfeld","[]","Alfeld","true","false","6211.920000001555"
"","html-voicekey-response","32","334436","0.0-4.28-0.28","pxwxhfjqrj1rk1r","{""user_agent"":""Mozilla/5.0 (Macintosh; Intel Mac OS X 10_14_4) AppleWebKit/537.36 (KHTML, like Gecko) Chrome/74.0.3729.169 Safari/537.36"",""on_chrome"":true,""on_mobile"":false,""language"":""en-US"",""screen_resolution"":[1440,900],""platform"":""MacIntel"",""timezone"":""Europe/Berlin""}","20","1260.6500000054716","","","1558611769342","7","","Erfurt","[]","Erfurt","true","false","1819.9900000035996"
"","html-voicekey-response","33","337988","0.0-4.29-0.29","pxwxhfjqrj1rk1r","{""user_agent"":""Mozilla/5.0 (Macintosh; Intel Mac OS X 10_14_4) AppleWebKit/537.36 (KHTML, like Gecko) Chrome/74.0.3729.169 Safari/537.36"",""on_chrome"":true,""on_mobile"":false,""language"":""en-US"",""screen_resolution"":[1440,900],""platform"":""MacIntel"",""timezone"":""Europe/Berlin""}","20","2255.0500000014204","","","1558611771765","8","","Gotha","[]","Gotha","true","false","2946.960000001127"
"","html-voicekey-response","34","342530","0.0-4.30-0.30","pxwxhfjqrj1rk1r","{""user_agent"":""Mozilla/5.0 (Macintosh; Intel Mac OS X 10_14_4) AppleWebKit/537.36 (KHTML, like Gecko) Chrome/74.0.3729.169 Safari/537.36"",""on_chrome"":true,""on_mobile"":false,""language"":""en-US"",""screen_resolution"":[1440,900],""platform"":""MacIntel"",""timezone"":""Europe/Berlin""}","20","3131.375000006147","","","1558611775317","9","","München","[]","München","true","false","3938.6999999987893"
"","html-voicekey-response","35","351530","0.0-4.31-0.31","pxwxhfjqrj1rk1r","{""user_agent"":""Mozilla/5.0 (Macintosh; Intel Mac OS X 10_14_4) AppleWebKit/537.36 (KHTML, like Gecko) Chrome/74.0.3729.169 Safari/537.36"",""on_chrome"":true,""on_mobile"":false,""language"":""en-US"",""screen_resolution"":[1440,900],""platform"":""MacIntel"",""timezone"":""Europe/Berlin""}","20","4004.5450000123587","","","1558611779860","3","","","[]","Ingolstadt","false","false","4996.120000010706"
"","html-voicekey-response","36","355640","0.0-4.32-0.32","pxwxhfjqrj1rk1r","{""user_agent"":""Mozilla/5.0 (Macintosh; Intel Mac OS X 10_14_4) AppleWebKit/537.36 (KHTML, like Gecko) Chrome/74.0.3729.169 Safari/537.36"",""on_chrome"":true,""on_mobile"":false,""language"":""en-US"",""screen_resolution"":[1440,900],""platform"":""MacIntel"",""timezone"":""Europe/Berlin""}","20","2815.3299999920187","","","1558611788860","12","","Dessau","[]","Dessau","true","true","3506.905000002007"
"","html-voicekey-response","37","359375","0.0-4.33-0.33","pxwxhfjqrj1rk1r","{""user_agent"":""Mozilla/5.0 (Macintosh; Intel Mac OS X 10_14_4) AppleWebKit/537.36 (KHTML, like Gecko) Chrome/74.0.3729.169 Safari/537.36"",""on_chrome"":true,""on_mobile"":false,""language"":""en-US"",""screen_resolution"":[1440,900],""platform"":""MacIntel"",""timezone"":""Europe/Berlin""}","20","2305.1499999945286","","","1558611792969","13","","Chemnitz","[]","Chemnitz","true","true","3130.779999992228"
"","html-voicekey-response","38","362215","0.0-4.34-0.34","pxwxhfjqrj1rk1r","{""user_agent"":""Mozilla/5.0 (Macintosh; Intel Mac OS X 10_14_4) AppleWebKit/537.36 (KHTML, like Gecko) Chrome/74.0.3729.169 Safari/537.36"",""on_chrome"":true,""on_mobile"":false,""language"":""en-US"",""screen_resolution"":[1440,900],""platform"":""MacIntel"",""timezone"":""Europe/Berlin""}","20","1679.1900000042283","","","1558611796704","12","","Dessau","[]","Dessau","true","false","2237.4649999983376"
"","html-voicekey-response","39","365082","0.0-4.35-0.35","pxwxhfjqrj1rk1r","{""user_agent"":""Mozilla/5.0 (Macintosh; Intel Mac OS X 10_14_4) AppleWebKit/537.36 (KHTML, like Gecko) Chrome/74.0.3729.169 Safari/537.36"",""on_chrome"":true,""on_mobile"":false,""language"":""en-US"",""screen_resolution"":[1440,900],""platform"":""MacIntel"",""timezone"":""Europe/Berlin""}","20","1255.0450000070036","","","1558611799544","13","","Chemnitz","[]","Chemnitz","true","false","2263.7499999982538"
"","html-voicekey-response","40","373348","0.0-4.36-0.36","pxwxhfjqrj1rk1r","{""user_agent"":""Mozilla/5.0 (Macintosh; Intel Mac OS X 10_14_4) AppleWebKit/537.36 (KHTML, like Gecko) Chrome/74.0.3729.169 Safari/537.36"",""on_chrome"":true,""on_mobile"":false,""language"":""en-US"",""screen_resolution"":[1440,900],""platform"":""MacIntel"",""timezone"":""Europe/Berlin""}","20","2521.260000003013","","","1558611802410","10","","","[]","Heidelberg","false","false","4263.180000009015"
"","html-voicekey-response","41","378606","0.0-4.37-0.37","pxwxhfjqrj1rk1r","{""user_agent"":""Mozilla/5.0 (Macintosh; Intel Mac OS X 10_14_4) AppleWebKit/537.36 (KHTML, like Gecko) Chrome/74.0.3729.169 Safari/537.36"",""on_chrome"":true,""on_mobile"":false,""language"":""en-US"",""screen_resolution"":[1440,900],""platform"":""MacIntel"",""timezone"":""Europe/Berlin""}","20","Infinity","","","1558611810677","3","","Ingolstadt","[]","Ingolstadt","true","false","4655.570000002626"
"","html-voicekey-response","42","381842","0.0-4.38-0.38","pxwxhfjqrj1rk1r","{""user_agent"":""Mozilla/5.0 (Macintosh; Intel Mac OS X 10_14_4) AppleWebKit/537.36 (KHTML, like Gecko) Chrome/74.0.3729.169 Safari/537.36"",""on_chrome"":true,""on_mobile"":false,""language"":""en-US"",""screen_resolution"":[1440,900],""platform"":""MacIntel"",""timezone"":""Europe/Berlin""}","20","1970.5499999925728","","","1558611815936","11","","Alfeld","[]","Alfeld","true","false","2629.430000000866"
"","html-voicekey-response","43","384995","0.0-4.39-0.39","pxwxhfjqrj1rk1r","{""user_agent"":""Mozilla/5.0 (Macintosh; Intel Mac OS X 10_14_4) AppleWebKit/537.36 (KHTML, like Gecko) Chrome/74.0.3729.169 Safari/537.36"",""on_chrome"":true,""on_mobile"":false,""language"":""en-US"",""screen_resolution"":[1440,900],""platform"":""MacIntel"",""timezone"":""Europe/Berlin""}","20","2056.344999998901","","","1558611819171","9","","München","[]","München","true","false","2549.780000001192"
"","html-voicekey-response","44","390445","0.0-4.40-0.40","pxwxhfjqrj1rk1r","{""user_agent"":""Mozilla/5.0 (Macintosh; Intel Mac OS X 10_14_4) AppleWebKit/537.36 (KHTML, like Gecko) Chrome/74.0.3729.169 Safari/537.36"",""on_chrome"":true,""on_mobile"":false,""language"":""en-US"",""screen_resolution"":[1440,900],""platform"":""MacIntel"",""timezone"":""Europe/Berlin""}","20","4071.055000002007","","","1558611822323","14","","Potsdam","[]","Potsdam","true","true","4847.265000003972"
"","html-voicekey-response","45","394679","0.0-4.41-0.41","pxwxhfjqrj1rk1r","{""user_agent"":""Mozilla/5.0 (Macintosh; Intel Mac OS X 10_14_4) AppleWebKit/537.36 (KHTML, like Gecko) Chrome/74.0.3729.169 Safari/537.36"",""on_chrome"":true,""on_mobile"":false,""language"":""en-US"",""screen_resolution"":[1440,900],""platform"":""MacIntel"",""timezone"":""Europe/Berlin""}","20","2571.1249999966008","","","1558611827774","15","","Nürnberg","[]","Nürnberg","true","true","3630.0799999880837"
"","html-voicekey-response","46","397340","0.0-4.42-0.42","pxwxhfjqrj1rk1r","{""user_agent"":""Mozilla/5.0 (Macintosh; Intel Mac OS X 10_14_4) AppleWebKit/537.36 (KHTML, like Gecko) Chrome/74.0.3729.169 Safari/537.36"",""on_chrome"":true,""on_mobile"":false,""language"":""en-US"",""screen_resolution"":[1440,900],""platform"":""MacIntel"",""timezone"":""Europe/Berlin""}","20","1246.899999992666","","","1558611832011","14","","Potsdam","[]","Potsdam","true","false","2055.785000004107"
"","html-voicekey-response","47","400123","0.0-4.43-0.43","pxwxhfjqrj1rk1r","{""user_agent"":""Mozilla/5.0 (Macintosh; Intel Mac OS X 10_14_4) AppleWebKit/537.36 (KHTML, like Gecko) Chrome/74.0.3729.169 Safari/537.36"",""on_chrome"":true,""on_mobile"":false,""language"":""en-US"",""screen_resolution"":[1440,900],""platform"":""MacIntel"",""timezone"":""Europe/Berlin""}","20","1071.424999996298","","","1558611834670","15","","Nürnberg","[]","Nürnberg","true","false","2179.6400000021094"
"","html-voicekey-response","48","407509","0.0-4.44-0.44","pxwxhfjqrj1rk1r","{""user_agent"":""Mozilla/5.0 (Macintosh; Intel Mac OS X 10_14_4) AppleWebKit/537.36 (KHTML, like Gecko) Chrome/74.0.3729.169 Safari/537.36"",""on_chrome"":true,""on_mobile"":false,""language"":""en-US"",""screen_resolution"":[1440,900],""platform"":""MacIntel"",""timezone"":""Europe/Berlin""}","20","5987.544999990705","","","1558611837453","3","","Ingolstadt","[]","Ingolstadt","true","false","6780.084999991232"
"","html-voicekey-response","49","410632","0.0-4.45-0.45","pxwxhfjqrj1rk1r","{""user_agent"":""Mozilla/5.0 (Macintosh; Intel Mac OS X 10_14_4) AppleWebKit/537.36 (KHTML, like Gecko) Chrome/74.0.3729.169 Safari/537.36"",""on_chrome"":true,""on_mobile"":false,""language"":""en-US"",""screen_resolution"":[1440,900],""platform"":""MacIntel"",""timezone"":""Europe/Berlin""}","20","1909.5900000046008","","","1558611844839","12","","Dessau","[]","Dessau","true","false","2518.435000005411"
"","html-voicekey-response","50","416648","0.0-4.46-0.46","pxwxhfjqrj1rk1r","{""user_agent"":""Mozilla/5.0 (Macintosh; Intel Mac OS X 10_14_4) AppleWebKit/537.36 (KHTML, like Gecko) Chrome/74.0.3729.169 Safari/537.36"",""on_chrome"":true,""on_mobile"":false,""language"":""en-US"",""screen_resolution"":[1440,900],""platform"":""MacIntel"",""timezone"":""Europe/Berlin""}","20","4637.915000008279","","","1558611847961","10","","Heidelberg","[]","Heidelberg","true","false","5413.840000008349"
"","html-voicekey-response","51","420707","0.0-4.47-0.47","pxwxhfjqrj1rk1r","{""user_agent"":""Mozilla/5.0 (Macintosh; Intel Mac OS X 10_14_4) AppleWebKit/537.36 (KHTML, like Gecko) Chrome/74.0.3729.169 Safari/537.36"",""on_chrome"":true,""on_mobile"":false,""language"":""en-US"",""screen_resolution"":[1440,900],""platform"":""MacIntel"",""timezone"":""Europe/Berlin""}","20","2735.9049999884796","","","1558611853979","13","","Chemnitz","[]","Chemnitz","true","false","3454.444999995758"
"","html-voicekey-response","52","426907","0.0-4.48-0.48","pxwxhfjqrj1rk1r","{""user_agent"":""Mozilla/5.0 (Macintosh; Intel Mac OS X 10_14_4) AppleWebKit/537.36 (KHTML, like Gecko) Chrome/74.0.3729.169 Safari/537.36"",""on_chrome"":true,""on_mobile"":false,""language"":""en-US"",""screen_resolution"":[1440,900],""platform"":""MacIntel"",""timezone"":""Europe/Berlin""}","20","4821.680000002589","","","1558611858036","16","","Schwangau","[]","Schwangau","true","true","5597.224999990431"
"","html-voicekey-response","53","431547","0.0-4.49-0.49","pxwxhfjqrj1rk1r","{""user_agent"":""Mozilla/5.0 (Macintosh; Intel Mac OS X 10_14_4) AppleWebKit/537.36 (KHTML, like Gecko) Chrome/74.0.3729.169 Safari/537.36"",""on_chrome"":true,""on_mobile"":false,""language"":""en-US"",""screen_resolution"":[1440,900],""platform"":""MacIntel"",""timezone"":""Europe/Berlin""}","20","3105.134999999637","","","1558611864236","17","","Leipzig","[]","Leipzig","true","true","4036.8799999996554"
"","html-voicekey-response","54","434729","0.0-4.50-0.50","pxwxhfjqrj1rk1r","{""user_agent"":""Mozilla/5.0 (Macintosh; Intel Mac OS X 10_14_4) AppleWebKit/537.36 (KHTML, like Gecko) Chrome/74.0.3729.169 Safari/537.36"",""on_chrome"":true,""on_mobile"":false,""language"":""en-US"",""screen_resolution"":[1440,900],""platform"":""MacIntel"",""timezone"":""Europe/Berlin""}","20","1553.7200000051876","","","1558611868876","16","","Schwangau","[]","Schwangau","true","false","2578.7899999995716"
"","html-voicekey-response","55","437547","0.0-4.51-0.51","pxwxhfjqrj1rk1r","{""user_agent"":""Mozilla/5.0 (Macintosh; Intel Mac OS X 10_14_4) AppleWebKit/537.36 (KHTML, like Gecko) Chrome/74.0.3729.169 Safari/537.36"",""on_chrome"":true,""on_mobile"":false,""language"":""en-US"",""screen_resolution"":[1440,900],""platform"":""MacIntel"",""timezone"":""Europe/Berlin""}","20","1356.6499999959256","","","1558611872057","17","","Leipzig","[]","Leipzig","true","false","2215.119999993476"
"","html-voicekey-response","56","442137","0.0-4.52-0.52","pxwxhfjqrj1rk1r","{""user_agent"":""Mozilla/5.0 (Macintosh; Intel Mac OS X 10_14_4) AppleWebKit/537.36 (KHTML, like Gecko) Chrome/74.0.3729.169 Safari/537.36"",""on_chrome"":true,""on_mobile"":false,""language"":""en-US"",""screen_resolution"":[1440,900],""platform"":""MacIntel"",""timezone"":""Europe/Berlin""}","20","3187.7449999972946","","","1558611874875","3","","Ingolstadt","[]","Ingolstadt","true","false","3988.5549999889918"
"","html-voicekey-response","57","454805","0.0-4.53-0.53","pxwxhfjqrj1rk1r","{""user_agent"":""Mozilla/5.0 (Macintosh; Intel Mac OS X 10_14_4) AppleWebKit/537.36 (KHTML, like Gecko) Chrome/74.0.3729.169 Safari/537.36"",""on_chrome"":true,""on_mobile"":false,""language"":""en-US"",""screen_resolution"":[1440,900],""platform"":""MacIntel"",""timezone"":""Europe/Berlin""}","20","7888.020000007446","","","1558611879466","10","","","[]","Heidelberg","false","false","8663.845000002766"
"","html-voicekey-response","58","459045","0.0-4.54-0.54","pxwxhfjqrj1rk1r","{""user_agent"":""Mozilla/5.0 (Macintosh; Intel Mac OS X 10_14_4) AppleWebKit/537.36 (KHTML, like Gecko) Chrome/74.0.3729.169 Safari/537.36"",""on_chrome"":true,""on_mobile"":false,""language"":""en-US"",""screen_resolution"":[1440,900],""platform"":""MacIntel"",""timezone"":""Europe/Berlin""}","20","2929.1749999918743","","","1558611892133","15","","Nürnberg","[]","Nürnberg","true","false","3638.0499999941094"
"","html-voicekey-response","59","469878","0.0-4.55-0.55","pxwxhfjqrj1rk1r","{""user_agent"":""Mozilla/5.0 (Macintosh; Intel Mac OS X 10_14_4) AppleWebKit/537.36 (KHTML, like Gecko) Chrome/74.0.3729.169 Safari/537.36"",""on_chrome"":true,""on_mobile"":false,""language"":""en-US"",""screen_resolution"":[1440,900],""platform"":""MacIntel"",""timezone"":""Europe/Berlin""}","20","5986.740000001946","","","1558611896375","14","","","[]","Potsdam","false","false","6829.765000002226"
"","html-voicekey-response","60","479773","0.0-4.56-0.56","pxwxhfjqrj1rk1r","{""user_agent"":""Mozilla/5.0 (Macintosh; Intel Mac OS X 10_14_4) AppleWebKit/537.36 (KHTML, like Gecko) Chrome/74.0.3729.169 Safari/537.36"",""on_chrome"":true,""on_mobile"":false,""language"":""en-US"",""screen_resolution"":[1440,900],""platform"":""MacIntel"",""timezone"":""Europe/Berlin""}","20","5065.550000008288","","","1558611907207","10","","","[]","Heidelberg","false","false","5891.795000003185"
"","html-voicekey-response","61","482896","0.0-4.57-0.57","pxwxhfjqrj1rk1r","{""user_agent"":""Mozilla/5.0 (Macintosh; Intel Mac OS X 10_14_4) AppleWebKit/537.36 (KHTML, like Gecko) Chrome/74.0.3729.169 Safari/537.36"",""on_chrome"":true,""on_mobile"":false,""language"":""en-US"",""screen_resolution"":[1440,900],""platform"":""MacIntel"",""timezone"":""Europe/Berlin""}","20","1645.1949999989943","","","1558611917102","16","","Schwangau","[]","Schwangau","true","false","2520.35999999498"
"","html-voicekey-response","62","485614","0.0-4.58-0.58","pxwxhfjqrj1rk1r","{""user_agent"":""Mozilla/5.0 (Macintosh; Intel Mac OS X 10_14_4) AppleWebKit/537.36 (KHTML, like Gecko) Chrome/74.0.3729.169 Safari/537.36"",""on_chrome"":true,""on_mobile"":false,""language"":""en-US"",""screen_resolution"":[1440,900],""platform"":""MacIntel"",""timezone"":""Europe/Berlin""}","20","1405.124999999162","","","1558611920225","17","","Leipzig","[]","Leipzig","true","false","2114.5699999906356"
"","html-voicekey-response","63","488797","0.0-4.59-0.59","pxwxhfjqrj1rk1r","{""user_agent"":""Mozilla/5.0 (Macintosh; Intel Mac OS X 10_14_4) AppleWebKit/537.36 (KHTML, like Gecko) Chrome/74.0.3729.169 Safari/537.36"",""on_chrome"":true,""on_mobile"":false,""language"":""en-US"",""screen_resolution"":[1440,900],""platform"":""MacIntel"",""timezone"":""Europe/Berlin""}","20","1938.3200000100537","","","1558611922943","13","","Chemnitz","[]","Chemnitz","true","false","2580.035000006319"
"","html-voicekey-response","64","502944","0.0-4.60-0.60","pxwxhfjqrj1rk1r","{""user_agent"":""Mozilla/5.0 (Macintosh; Intel Mac OS X 10_14_4) AppleWebKit/537.36 (KHTML, like Gecko) Chrome/74.0.3729.169 Safari/537.36"",""on_chrome"":true,""on_mobile"":false,""language"":""en-US"",""screen_resolution"":[1440,900],""platform"":""MacIntel"",""timezone"":""Europe/Berlin""}","20","12716.280000002216","","","1558611926126","3","","Ingolstadt","[]","Ingolstadt","true","false","13542.474999994738"
"","html-voicekey-response","65","505917","0.0-4.61-0.61","pxwxhfjqrj1rk1r","{""user_agent"":""Mozilla/5.0 (Macintosh; Intel Mac OS X 10_14_4) AppleWebKit/537.36 (KHTML, like Gecko) Chrome/74.0.3729.169 Safari/537.36"",""on_chrome"":true,""on_mobile"":false,""language"":""en-US"",""screen_resolution"":[1440,900],""platform"":""MacIntel"",""timezone"":""Europe/Berlin""}","20","1695.4800000038","","","1558611940273","10","","Heidelberg","[]","Heidelberg","true","false","2370.4350000043632"
"","html-voicekey-response","66","513135","0.0-4.62-0.62","pxwxhfjqrj1rk1r","{""user_agent"":""Mozilla/5.0 (Macintosh; Intel Mac OS X 10_14_4) AppleWebKit/537.36 (KHTML, like Gecko) Chrome/74.0.3729.169 Safari/537.36"",""on_chrome"":true,""on_mobile"":false,""language"":""en-US"",""screen_resolution"":[1440,900],""platform"":""MacIntel"",""timezone"":""Europe/Berlin""}","20","5686.945000002952","","","1558611943248","14","","Potsdam","[]","Potsdam","true","false","6611.9049999979325"
"","html-voicekey-response","67","517475","0.0-4.63-0.63","pxwxhfjqrj1rk1r","{""user_agent"":""Mozilla/5.0 (Macintosh; Intel Mac OS X 10_14_4) AppleWebKit/537.36 (KHTML, like Gecko) Chrome/74.0.3729.169 Safari/537.36"",""on_chrome"":true,""on_mobile"":false,""language"":""en-US"",""screen_resolution"":[1440,900],""platform"":""MacIntel"",""timezone"":""Europe/Berlin""}","20","3078.1799999911805","","","1558611950464","3","","Ingolstadt","[]","Ingolstadt","true","false","3737.364999993588"
"","html-voicekey-response","68","520341","0.0-4.64-0.64","pxwxhfjqrj1rk1r","{""user_agent"":""Mozilla/5.0 (Macintosh; Intel Mac OS X 10_14_4) AppleWebKit/537.36 (KHTML, like Gecko) Chrome/74.0.3729.169 Safari/537.36"",""on_chrome"":true,""on_mobile"":false,""language"":""en-US"",""screen_resolution"":[1440,900],""platform"":""MacIntel"",""timezone"":""Europe/Berlin""}","20","1485.8299999994692","","","1558611954805","15","","Nürnberg","[]","Nürnberg","true","false","2261.5099999966333"
"","html-voicekey-response","69","522675","0.0-4.65-0.65","pxwxhfjqrj1rk1r","{""user_agent"":""Mozilla/5.0 (Macintosh; Intel Mac OS X 10_14_4) AppleWebKit/537.36 (KHTML, like Gecko) Chrome/74.0.3729.169 Safari/537.36"",""on_chrome"":true,""on_mobile"":false,""language"":""en-US"",""screen_resolution"":[1440,900],""platform"":""MacIntel"",""timezone"":""Europe/Berlin""}","20","1137.2350000109059","","","1558611957672","3","","Ingolstadt","[]","Ingolstadt","true","false","1728.995000012219"
"","html-voicekey-response","70","525152","0.0-4.66-0.66","pxwxhfjqrj1rk1r","{""user_agent"":""Mozilla/5.0 (Macintosh; Intel Mac OS X 10_14_4) AppleWebKit/537.36 (KHTML, like Gecko) Chrome/74.0.3729.169 Safari/537.36"",""on_chrome"":true,""on_mobile"":false,""language"":""en-US"",""screen_resolution"":[1440,900],""platform"":""MacIntel"",""timezone"":""Europe/Berlin""}","20","1364.0850000027335","","","1558611960005","9","","München","[]","München","true","false","1872.705000001588"
"","html-voicekey-response","71","527635","0.0-4.67-0.67","pxwxhfjqrj1rk1r","{""user_agent"":""Mozilla/5.0 (Macintosh; Intel Mac OS X 10_14_4) AppleWebKit/537.36 (KHTML, like Gecko) Chrome/74.0.3729.169 Safari/537.36"",""on_chrome"":true,""on_mobile"":false,""language"":""en-US"",""screen_resolution"":[1440,900],""platform"":""MacIntel"",""timezone"":""Europe/Berlin""}","20","1370.9000000033761","","","1558611962481","8","","Gotha","[]","Gotha","true","false","1879.944999993313"
"","html-voicekey-response","72","534253","0.0-4.68-0.68","pxwxhfjqrj1rk1r","{""user_agent"":""Mozilla/5.0 (Macintosh; Intel Mac OS X 10_14_4) AppleWebKit/537.36 (KHTML, like Gecko) Chrome/74.0.3729.169 Safari/537.36"",""on_chrome"":true,""on_mobile"":false,""language"":""en-US"",""screen_resolution"":[1440,900],""platform"":""MacIntel"",""timezone"":""Europe/Berlin""}","20","5003.845000008214","","","1558611964964","18","","Forchheim","[]","Forchheim","true","true","6013.565000001108"
"","html-voicekey-response","73","537160","0.0-4.69-0.69","pxwxhfjqrj1rk1r","{""user_agent"":""Mozilla/5.0 (Macintosh; Intel Mac OS X 10_14_4) AppleWebKit/537.36 (KHTML, like Gecko) Chrome/74.0.3729.169 Safari/537.36"",""on_chrome"":true,""on_mobile"":false,""language"":""en-US"",""screen_resolution"":[1440,900],""platform"":""MacIntel"",""timezone"":""Europe/Berlin""}","20","1811.1049999950687","","","1558611971583","14","","Potsdam","[]","Potsdam","true","false","2303.2549999916228"
"","html-voicekey-response","74","542510","0.0-4.70-0.70","pxwxhfjqrj1rk1r","{""user_agent"":""Mozilla/5.0 (Macintosh; Intel Mac OS X 10_14_4) AppleWebKit/537.36 (KHTML, like Gecko) Chrome/74.0.3729.169 Safari/537.36"",""on_chrome"":true,""on_mobile"":false,""language"":""en-US"",""screen_resolution"":[1440,900],""platform"":""MacIntel"",""timezone"":""Europe/Berlin""}","20","4120.430000004335","","","1558611974489","18","","Forchheim","[]","Forchheim","true","false","4745.980000006966"
"","html-voicekey-response","75","545708","0.0-4.71-0.71","pxwxhfjqrj1rk1r","{""user_agent"":""Mozilla/5.0 (Macintosh; Intel Mac OS X 10_14_4) AppleWebKit/537.36 (KHTML, like Gecko) Chrome/74.0.3729.169 Safari/537.36"",""on_chrome"":true,""on_mobile"":false,""language"":""en-US"",""screen_resolution"":[1440,900],""platform"":""MacIntel"",""timezone"":""Europe/Berlin""}","20","1986.9300000080607","","","1558611979839","3","","Ingolstadt","[]","Ingolstadt","true","false","2594.935000000987"
"","html-voicekey-response","76","553252","0.0-4.72-0.72","pxwxhfjqrj1rk1r","{""user_agent"":""Mozilla/5.0 (Macintosh; Intel Mac OS X 10_14_4) AppleWebKit/537.36 (KHTML, like Gecko) Chrome/74.0.3729.169 Safari/537.36"",""on_chrome"":true,""on_mobile"":false,""language"":""en-US"",""screen_resolution"":[1440,900],""platform"":""MacIntel"",""timezone"":""Europe/Berlin""}","20","6248.264999996381","","","1558611983038","10","","Heidelberg","[]","Heidelberg","true","false","6940.535000001546"
"","html-voicekey-response","77","555535","0.0-4.73-0.73","pxwxhfjqrj1rk1r","{""user_agent"":""Mozilla/5.0 (Macintosh; Intel Mac OS X 10_14_4) AppleWebKit/537.36 (KHTML, like Gecko) Chrome/74.0.3729.169 Safari/537.36"",""on_chrome"":true,""on_mobile"":false,""language"":""en-US"",""screen_resolution"":[1440,900],""platform"":""MacIntel"",""timezone"":""Europe/Berlin""}","20","1171.260000011744","","","1558611990582","2","","Berlin","[]","Berlin","true","false","1679.1900000098394"
"","html-voicekey-response","78","557857","0.0-4.74-0.74","pxwxhfjqrj1rk1r","{""user_agent"":""Mozilla/5.0 (Macintosh; Intel Mac OS X 10_14_4) AppleWebKit/537.36 (KHTML, like Gecko) Chrome/74.0.3729.169 Safari/537.36"",""on_chrome"":true,""on_mobile"":false,""language"":""en-US"",""screen_resolution"":[1440,900],""platform"":""MacIntel"",""timezone"":""Europe/Berlin""}","20","1193.280000001169","","","1558611992864","1","","Magdeburg","[]","Magdeburg","true","false","1718.7200000043958"
"","html-voicekey-response","79","560674","0.0-4.75-0.75","pxwxhfjqrj1rk1r","{""user_agent"":""Mozilla/5.0 (Macintosh; Intel Mac OS X 10_14_4) AppleWebKit/537.36 (KHTML, like Gecko) Chrome/74.0.3729.169 Safari/537.36"",""on_chrome"":true,""on_mobile"":false,""language"":""en-US"",""screen_resolution"":[1440,900],""platform"":""MacIntel"",""timezone"":""Europe/Berlin""}","20","1553.905000002333","","","1558611995187","10","","Heidelberg","[]","Heidelberg","true","false","2213.2199999905424"
"","html-voicekey-response","80","563889","0.0-4.76-0.76","pxwxhfjqrj1rk1r","{""user_agent"":""Mozilla/5.0 (Macintosh; Intel Mac OS X 10_14_4) AppleWebKit/537.36 (KHTML, like Gecko) Chrome/74.0.3729.169 Safari/537.36"",""on_chrome"":true,""on_mobile"":false,""language"":""en-US"",""screen_resolution"":[1440,900],""platform"":""MacIntel"",""timezone"":""Europe/Berlin""}","20","2119.249999997765","","","1558611998004","19","","Frankfurt","[]","Frankfurt","true","true","2611.749999996391"
"","html-voicekey-response","81","566742","0.0-4.77-0.77","pxwxhfjqrj1rk1r","{""user_agent"":""Mozilla/5.0 (Macintosh; Intel Mac OS X 10_14_4) AppleWebKit/537.36 (KHTML, like Gecko) Chrome/74.0.3729.169 Safari/537.36"",""on_chrome"":true,""on_mobile"":false,""language"":""en-US"",""screen_resolution"":[1440,900],""platform"":""MacIntel"",""timezone"":""Europe/Berlin""}","20","1703.8250000130852","","","1558612001220","20","","Hamburg ","[]","Hamburg ","true","true","2246.3500000012573"
"","html-voicekey-response","82","569362","0.0-4.78-0.78","pxwxhfjqrj1rk1r","{""user_agent"":""Mozilla/5.0 (Macintosh; Intel Mac OS X 10_14_4) AppleWebKit/537.36 (KHTML, like Gecko) Chrome/74.0.3729.169 Safari/537.36"",""on_chrome"":true,""on_mobile"":false,""language"":""en-US"",""screen_resolution"":[1440,900],""platform"":""MacIntel"",""timezone"":""Europe/Berlin""}","20","1558.1499999915018","","","1558612004072","19","","Frankfurt","[]","Frankfurt","true","false","2016.284999990603"
"","html-voicekey-response","83","571712","0.0-4.79-0.79","pxwxhfjqrj1rk1r","{""user_agent"":""Mozilla/5.0 (Macintosh; Intel Mac OS X 10_14_4) AppleWebKit/537.36 (KHTML, like Gecko) Chrome/74.0.3729.169 Safari/537.36"",""on_chrome"":true,""on_mobile"":false,""language"":""en-US"",""screen_resolution"":[1440,900],""platform"":""MacIntel"",""timezone"":""Europe/Berlin""}","20","1154.4149999916322","","","1558612006692","20","","Hamburg ","[]","Hamburg ","true","false","1746.3600000046426"
"","html-voicekey-response","84","576797","0.0-4.80-0.80","pxwxhfjqrj1rk1r","{""user_agent"":""Mozilla/5.0 (Macintosh; Intel Mac OS X 10_14_4) AppleWebKit/537.36 (KHTML, like Gecko) Chrome/74.0.3729.169 Safari/537.36"",""on_chrome"":true,""on_mobile"":false,""language"":""en-US"",""screen_resolution"":[1440,900],""platform"":""MacIntel"",""timezone"":""Europe/Berlin""}","20","3652.920000002114","","","1558612009044","21","","Konstanz","[]","Konstanz","true","true","4478.979999999865"
"","html-voicekey-response","85","581037","0.0-4.81-0.81","pxwxhfjqrj1rk1r","{""user_agent"":""Mozilla/5.0 (Macintosh; Intel Mac OS X 10_14_4) AppleWebKit/537.36 (KHTML, like Gecko) Chrome/74.0.3729.169 Safari/537.36"",""on_chrome"":true,""on_mobile"":false,""language"":""en-US"",""screen_resolution"":[1440,900],""platform"":""MacIntel"",""timezone"":""Europe/Berlin""}","20","2993.224999992736","","","1558612014127","3","","Ingolstadt","[]","Ingolstadt","true","false","3635.72999999451"
"","html-voicekey-response","86","595185","0.0-4.82-0.82","pxwxhfjqrj1rk1r","{""user_agent"":""Mozilla/5.0 (Macintosh; Intel Mac OS X 10_14_4) AppleWebKit/537.36 (KHTML, like Gecko) Chrome/74.0.3729.169 Safari/537.36"",""on_chrome"":true,""on_mobile"":false,""language"":""en-US"",""screen_resolution"":[1440,900],""platform"":""MacIntel"",""timezone"":""Europe/Berlin""}","20","8868.085000003548","","","1558612018368","21","","","[]","Konstanz","false","false","10142.689999993308"
"","html-voicekey-response","87","606396","0.0-4.83-0.83","pxwxhfjqrj1rk1r","{""user_agent"":""Mozilla/5.0 (Macintosh; Intel Mac OS X 10_14_4) AppleWebKit/537.36 (KHTML, like Gecko) Chrome/74.0.3729.169 Safari/537.36"",""on_chrome"":true,""on_mobile"":false,""language"":""en-US"",""screen_resolution"":[1440,900],""platform"":""MacIntel"",""timezone"":""Europe/Berlin""}","20","3646.2799999952317","","","1558612032516","10","","","[]","Heidelberg","false","false","7205.719999998109"
"","html-voicekey-response","88","615505","0.0-4.84-0.84","pxwxhfjqrj1rk1r","{""user_agent"":""Mozilla/5.0 (Macintosh; Intel Mac OS X 10_14_4) AppleWebKit/537.36 (KHTML, like Gecko) Chrome/74.0.3729.169 Safari/537.36"",""on_chrome"":true,""on_mobile"":false,""language"":""en-US"",""screen_resolution"":[1440,900],""platform"":""MacIntel"",""timezone"":""Europe/Berlin""}","20","Infinity","","","1558612043726","18","","Forchheim","[]","Forchheim","true","false","8504.339999999502"
"","html-voicekey-response","89","618835","0.0-4.85-0.85","pxwxhfjqrj1rk1r","{""user_agent"":""Mozilla/5.0 (Macintosh; Intel Mac OS X 10_14_4) AppleWebKit/537.36 (KHTML, like Gecko) Chrome/74.0.3729.169 Safari/537.36"",""on_chrome"":true,""on_mobile"":false,""language"":""en-US"",""screen_resolution"":[1440,900],""platform"":""MacIntel"",""timezone"":""Europe/Berlin""}","20","2165.064999988163","","","1558612052836","10","","Heidelberg","[]","Heidelberg","true","false","2724.999999991269"
"","html-voicekey-response","90","622701","0.0-4.86-0.86","pxwxhfjqrj1rk1r","{""user_agent"":""Mozilla/5.0 (Macintosh; Intel Mac OS X 10_14_4) AppleWebKit/537.36 (KHTML, like Gecko) Chrome/74.0.3729.169 Safari/537.36"",""on_chrome"":true,""on_mobile"":false,""language"":""en-US"",""screen_resolution"":[1440,900],""platform"":""MacIntel"",""timezone"":""Europe/Berlin""}","20","2535.870000001369","","","1558612056165","3","","Ingolstadt","[]","Ingolstadt","true","false","3261.5550000045914"
"","html-voicekey-response","91","625167","0.0-4.87-0.87","pxwxhfjqrj1rk1r","{""user_agent"":""Mozilla/5.0 (Macintosh; Intel Mac OS X 10_14_4) AppleWebKit/537.36 (KHTML, like Gecko) Chrome/74.0.3729.169 Safari/537.36"",""on_chrome"":true,""on_mobile"":false,""language"":""en-US"",""screen_resolution"":[1440,900],""platform"":""MacIntel"",""timezone"":""Europe/Berlin""}","20","1217.9850000046195","","","1558612060034","14","","Potsdam","[]","Potsdam","true","false","1860.0149999983842"
"","html-voicekey-response","92","627623","0.0-4.88-0.88","pxwxhfjqrj1rk1r","{""user_agent"":""Mozilla/5.0 (Macintosh; Intel Mac OS X 10_14_4) AppleWebKit/537.36 (KHTML, like Gecko) Chrome/74.0.3729.169 Safari/537.36"",""on_chrome"":true,""on_mobile"":false,""language"":""en-US"",""screen_resolution"":[1440,900],""platform"":""MacIntel"",""timezone"":""Europe/Berlin""}","20","1186.7650000002236","","","1558612062498","19","","Frankfurt","[]","Frankfurt","true","false","1851.4500000019325"
"","html-voicekey-response","93","629707","0.0-4.89-0.89","pxwxhfjqrj1rk1r","{""user_agent"":""Mozilla/5.0 (Macintosh; Intel Mac OS X 10_14_4) AppleWebKit/537.36 (KHTML, like Gecko) Chrome/74.0.3729.169 Safari/537.36"",""on_chrome"":true,""on_mobile"":false,""language"":""en-US"",""screen_resolution"":[1440,900],""platform"":""MacIntel"",""timezone"":""Europe/Berlin""}","20","837.049999996298","","","1558612064954","20","","Hamburg ","[]","Hamburg ","true","false","1478.92999999749"
"","html-voicekey-response","94","632390","0.0-4.90-0.90","pxwxhfjqrj1rk1r","{""user_agent"":""Mozilla/5.0 (Macintosh; Intel Mac OS X 10_14_4) AppleWebKit/537.36 (KHTML, like Gecko) Chrome/74.0.3729.169 Safari/537.36"",""on_chrome"":true,""on_mobile"":false,""language"":""en-US"",""screen_resolution"":[1440,900],""platform"":""MacIntel"",""timezone"":""Europe/Berlin""}","20","1552.4399999938673","","","1558612067037","6","","Dresden","[]","Dresden","true","false","2079.12499998929"
"","html-voicekey-response","95","635724","0.0-4.91-0.91","pxwxhfjqrj1rk1r","{""user_agent"":""Mozilla/5.0 (Macintosh; Intel Mac OS X 10_14_4) AppleWebKit/537.36 (KHTML, like Gecko) Chrome/74.0.3729.169 Safari/537.36"",""on_chrome"":true,""on_mobile"":false,""language"":""en-US"",""screen_resolution"":[1440,900],""platform"":""MacIntel"",""timezone"":""Europe/Berlin""}","20","2286.275000000233","","","1558612069721","5","","Aachen","[]","Aachen","true","false","2728.9200000086566"
"","html-voicekey-response","96","642663","0.0-4.92-0.92","pxwxhfjqrj1rk1r","{""user_agent"":""Mozilla/5.0 (Macintosh; Intel Mac OS X 10_14_4) AppleWebKit/537.36 (KHTML, like Gecko) Chrome/74.0.3729.169 Safari/537.36"",""on_chrome"":true,""on_mobile"":false,""language"":""en-US"",""screen_resolution"":[1440,900],""platform"":""MacIntel"",""timezone"":""Europe/Berlin""}","20","5435.4099999998925","","","1558612073055","21","","Konstanz","[]","Konstanz","true","false","6333.834999997634"
"","html-voicekey-response","97","645978","0.0-4.93-0.93","pxwxhfjqrj1rk1r","{""user_agent"":""Mozilla/5.0 (Macintosh; Intel Mac OS X 10_14_4) AppleWebKit/537.36 (KHTML, like Gecko) Chrome/74.0.3729.169 Safari/537.36"",""on_chrome"":true,""on_mobile"":false,""language"":""en-US"",""screen_resolution"":[1440,900],""platform"":""MacIntel"",""timezone"":""Europe/Berlin""}","20","2168.114999987511","","","1558612079994","4","","Würzburg","[]","Würzburg","true","false","2710.2599999925587"
"","html-voicekey-response","98","650454","0.0-4.94-0.94","pxwxhfjqrj1rk1r","{""user_agent"":""Mozilla/5.0 (Macintosh; Intel Mac OS X 10_14_4) AppleWebKit/537.36 (KHTML, like Gecko) Chrome/74.0.3729.169 Safari/537.36"",""on_chrome"":true,""on_mobile"":false,""language"":""en-US"",""screen_resolution"":[1440,900],""platform"":""MacIntel"",""timezone"":""Europe/Berlin""}","20","3305.20499999132","","","1558612083307","18","","Forchheim","[]","Forchheim","true","false","3872.529999993276"
"","html-voicekey-response","99","655487","0.0-4.95-0.95","pxwxhfjqrj1rk1r","{""user_agent"":""Mozilla/5.0 (Macintosh; Intel Mac OS X 10_14_4) AppleWebKit/537.36 (KHTML, like Gecko) Chrome/74.0.3729.169 Safari/537.36"",""on_chrome"":true,""on_mobile"":false,""language"":""en-US"",""screen_resolution"":[1440,900],""platform"":""MacIntel"",""timezone"":""Europe/Berlin""}","20","3501.7049999967917","","","1558612087785","3","","Ingolstadt","[]","Ingolstadt","true","false","4426.885000008042"
"","html-voicekey-response","100","659053","0.0-4.96-0.96","pxwxhfjqrj1rk1r","{""user_agent"":""Mozilla/5.0 (Macintosh; Intel Mac OS X 10_14_4) AppleWebKit/537.36 (KHTML, like Gecko) Chrome/74.0.3729.169 Safari/537.36"",""on_chrome"":true,""on_mobile"":false,""language"":""en-US"",""screen_resolution"":[1440,900],""platform"":""MacIntel"",""timezone"":""Europe/Berlin""}","20","2235.5550000009594","","","1558612092818","10","","Heidelberg","[]","Heidelberg","true","false","2961.4500000025146"
"","html-voicekey-response","101","661715","0.0-4.97-0.97","pxwxhfjqrj1rk1r","{""user_agent"":""Mozilla/5.0 (Macintosh; Intel Mac OS X 10_14_4) AppleWebKit/537.36 (KHTML, like Gecko) Chrome/74.0.3729.169 Safari/537.36"",""on_chrome"":true,""on_mobile"":false,""language"":""en-US"",""screen_resolution"":[1440,900],""platform"":""MacIntel"",""timezone"":""Europe/Berlin""}","20","1532.11500000346","","","1558612096384","7","","Erfurt","[]","Erfurt","true","false","2057.7050000138115"
"","html-voicekey-response","102","667433","0.0-4.98-0.98","pxwxhfjqrj1rk1r","{""user_agent"":""Mozilla/5.0 (Macintosh; Intel Mac OS X 10_14_4) AppleWebKit/537.36 (KHTML, like Gecko) Chrome/74.0.3729.169 Safari/537.36"",""on_chrome"":true,""on_mobile"":false,""language"":""en-US"",""screen_resolution"":[1440,900],""platform"":""MacIntel"",""timezone"":""Europe/Berlin""}","20","4300.899999996391","","","1558612099048","22","","Bamberg","[]","Bamberg","true","true","5110.19999999553"
"","html-voicekey-response","103","670865","0.0-4.99-0.99","pxwxhfjqrj1rk1r","{""user_agent"":""Mozilla/5.0 (Macintosh; Intel Mac OS X 10_14_4) AppleWebKit/537.36 (KHTML, like Gecko) Chrome/74.0.3729.169 Safari/537.36"",""on_chrome"":true,""on_mobile"":false,""language"":""en-US"",""screen_resolution"":[1440,900],""platform"":""MacIntel"",""timezone"":""Europe/Berlin""}","20","2167.6399999940536","","","1558612104765","23","","Stuttgart","[]","Stuttgart","true","true","2825.8349999960046"
"","html-voicekey-response","104","673657","0.0-4.100-0.100","pxwxhfjqrj1rk1r","{""user_agent"":""Mozilla/5.0 (Macintosh; Intel Mac OS X 10_14_4) AppleWebKit/537.36 (KHTML, like Gecko) Chrome/74.0.3729.169 Safari/537.36"",""on_chrome"":true,""on_mobile"":false,""language"":""en-US"",""screen_resolution"":[1440,900],""platform"":""MacIntel"",""timezone"":""Europe/Berlin""}","20","1627.2700000061654","","","1558612108196","22","","Bamberg","[]","Bamberg","true","false","2187.115000007907"
"","html-voicekey-response","105","676105","0.0-4.101-0.101","pxwxhfjqrj1rk1r","{""user_agent"":""Mozilla/5.0 (Macintosh; Intel Mac OS X 10_14_4) AppleWebKit/537.36 (KHTML, like Gecko) Chrome/74.0.3729.169 Safari/537.36"",""on_chrome"":true,""on_mobile"":false,""language"":""en-US"",""screen_resolution"":[1440,900],""platform"":""MacIntel"",""timezone"":""Europe/Berlin""}","20","1300.8600000119536","","","1558612110989","23","","Stuttgart","[]","Stuttgart","true","false","1842.915000001085"
"","html-voicekey-response","106","678807","0.0-4.102-0.102","pxwxhfjqrj1rk1r","{""user_agent"":""Mozilla/5.0 (Macintosh; Intel Mac OS X 10_14_4) AppleWebKit/537.36 (KHTML, like Gecko) Chrome/74.0.3729.169 Safari/537.36"",""on_chrome"":true,""on_mobile"":false,""language"":""en-US"",""screen_resolution"":[1440,900],""platform"":""MacIntel"",""timezone"":""Europe/Berlin""}","20","1469.6999999958557","","","1558612113437","18","","Forchheim","[]","Forchheim","true","false","2096.590000001015"
"","html-voicekey-response","107","683073","0.0-4.103-0.103","pxwxhfjqrj1rk1r","{""user_agent"":""Mozilla/5.0 (Macintosh; Intel Mac OS X 10_14_4) AppleWebKit/537.36 (KHTML, like Gecko) Chrome/74.0.3729.169 Safari/537.36"",""on_chrome"":true,""on_mobile"":false,""language"":""en-US"",""screen_resolution"":[1440,900],""platform"":""MacIntel"",""timezone"":""Europe/Berlin""}","20","2718.6949999975973","","","1558612116138","21","","Konstanz","[]","Konstanz","true","false","3660.990000003949"
"","html-voicekey-response","108","686363","0.0-4.104-0.104","pxwxhfjqrj1rk1r","{""user_agent"":""Mozilla/5.0 (Macintosh; Intel Mac OS X 10_14_4) AppleWebKit/537.36 (KHTML, like Gecko) Chrome/74.0.3729.169 Safari/537.36"",""on_chrome"":true,""on_mobile"":false,""language"":""en-US"",""screen_resolution"":[1440,900],""platform"":""MacIntel"",""timezone"":""Europe/Berlin""}","20","2159.6799999914133","","","1558612120404","24","","Köln","[]","Köln","true","true","2684.949999995297"
"","html-voicekey-response","109","696463","0.0-4.105-0.105","pxwxhfjqrj1rk1r","{""user_agent"":""Mozilla/5.0 (Macintosh; Intel Mac OS X 10_14_4) AppleWebKit/537.36 (KHTML, like Gecko) Chrome/74.0.3729.169 Safari/537.36"",""on_chrome"":true,""on_mobile"":false,""language"":""en-US"",""screen_resolution"":[1440,900],""platform"":""MacIntel"",""timezone"":""Europe/Berlin""}","20","5220.204999999469","","","1558612123694","3","","","[]","Ingolstadt","false","false","6095.375000004424"
"","html-voicekey-response","110","699134","0.0-4.106-0.106","pxwxhfjqrj1rk1r","{""user_agent"":""Mozilla/5.0 (Macintosh; Intel Mac OS X 10_14_4) AppleWebKit/537.36 (KHTML, like Gecko) Chrome/74.0.3729.169 Safari/537.36"",""on_chrome"":true,""on_mobile"":false,""language"":""en-US"",""screen_resolution"":[1440,900],""platform"":""MacIntel"",""timezone"":""Europe/Berlin""}","20","100","","","1558612133795","24","","Köln","[]","Köln","true","false","2065.6100000051083"
"","html-voicekey-response","111","701785","0.0-4.107-0.107","pxwxhfjqrj1rk1r","{""user_agent"":""Mozilla/5.0 (Macintosh; Intel Mac OS X 10_14_4) AppleWebKit/537.36 (KHTML, like Gecko) Chrome/74.0.3729.169 Safari/537.36"",""on_chrome"":true,""on_mobile"":false,""language"":""en-US"",""screen_resolution"":[1440,900],""platform"":""MacIntel"",""timezone"":""Europe/Berlin""}","20","1486.47499999227","","","1558612136466","3","","Ingolstadt","[]","Ingolstadt","true","false","2045.2349999977741"
"","html-voicekey-response","112","706411","0.0-4.108-0.108","pxwxhfjqrj1rk1r","{""user_agent"":""Mozilla/5.0 (Macintosh; Intel Mac OS X 10_14_4) AppleWebKit/537.36 (KHTML, like Gecko) Chrome/74.0.3729.169 Safari/537.36"",""on_chrome"":true,""on_mobile"":false,""language"":""en-US"",""screen_resolution"":[1440,900],""platform"":""MacIntel"",""timezone"":""Europe/Berlin""}","20","3318.3999999981374","","","1558612139117","10","","Heidelberg","[]","Heidelberg","true","false","4019.690000000992"
"","html-voicekey-response","113","709062","0.0-4.109-0.109","pxwxhfjqrj1rk1r","{""user_agent"":""Mozilla/5.0 (Macintosh; Intel Mac OS X 10_14_4) AppleWebKit/537.36 (KHTML, like Gecko) Chrome/74.0.3729.169 Safari/537.36"",""on_chrome"":true,""on_mobile"":false,""language"":""en-US"",""screen_resolution"":[1440,900],""platform"":""MacIntel"",""timezone"":""Europe/Berlin""}","20","1334.7199999933132","","","1558612143743","14","","Potsdam","[]","Potsdam","true","false","2045.0349999882746"
"","html-voicekey-response","114","712061","0.0-4.110-0.110","pxwxhfjqrj1rk1r","{""user_agent"":""Mozilla/5.0 (Macintosh; Intel Mac OS X 10_14_4) AppleWebKit/537.36 (KHTML, like Gecko) Chrome/74.0.3729.169 Safari/537.36"",""on_chrome"":true,""on_mobile"":false,""language"":""en-US"",""screen_resolution"":[1440,900],""platform"":""MacIntel"",""timezone"":""Europe/Berlin""}","20","1533.430000004801","","","1558612146394","21","","Konstanz","[]","Konstanz","true","false","2392.6400000054855"
"","html-voicekey-response","115","714702","0.0-4.111-0.111","pxwxhfjqrj1rk1r","{""user_agent"":""Mozilla/5.0 (Macintosh; Intel Mac OS X 10_14_4) AppleWebKit/537.36 (KHTML, like Gecko) Chrome/74.0.3729.169 Safari/537.36"",""on_chrome"":true,""on_mobile"":false,""language"":""en-US"",""screen_resolution"":[1440,900],""platform"":""MacIntel"",""timezone"":""Europe/Berlin""}","20","1418.2999999992085","","","1558612149393","12","","Dessau","[]","Dessau","true","false","2034.9450000067009"
"","html-voicekey-response","116","719568","0.0-4.112-0.112","pxwxhfjqrj1rk1r","{""user_agent"":""Mozilla/5.0 (Macintosh; Intel Mac OS X 10_14_4) AppleWebKit/537.36 (KHTML, like Gecko) Chrome/74.0.3729.169 Safari/537.36"",""on_chrome"":true,""on_mobile"":false,""language"":""en-US"",""screen_resolution"":[1440,900],""platform"":""MacIntel"",""timezone"":""Europe/Berlin""}","20","3083.5449999957114","","","1558612152034","25","","Osnabrück","[]","Osnabrück","true","true","4259.745000003022"
"","html-voicekey-response","117","722701","0.0-4.113-0.113","pxwxhfjqrj1rk1r","{""user_agent"":""Mozilla/5.0 (Macintosh; Intel Mac OS X 10_14_4) AppleWebKit/537.36 (KHTML, like Gecko) Chrome/74.0.3729.169 Safari/537.36"",""on_chrome"":true,""on_mobile"":false,""language"":""en-US"",""screen_resolution"":[1440,900],""platform"":""MacIntel"",""timezone"":""Europe/Berlin""}","20","1753.6499999931316","","","1558612156897","3","","Ingolstadt","[]","Ingolstadt","true","false","2529.9550000054296"
"","html-voicekey-response","118","726159","0.0-4.114-0.114","pxwxhfjqrj1rk1r","{""user_agent"":""Mozilla/5.0 (Macintosh; Intel Mac OS X 10_14_4) AppleWebKit/537.36 (KHTML, like Gecko) Chrome/74.0.3729.169 Safari/537.36"",""on_chrome"":true,""on_mobile"":false,""language"":""en-US"",""screen_resolution"":[1440,900],""platform"":""MacIntel"",""timezone"":""Europe/Berlin""}","20","2293.0550000108547","","","1558612160033","25","","Osnabrück","[]","Osnabrück","true","false","2851.795000009588"
"","html-voicekey-response","119","739943","0.0-4.115-0.115","pxwxhfjqrj1rk1r","{""user_agent"":""Mozilla/5.0 (Macintosh; Intel Mac OS X 10_14_4) AppleWebKit/537.36 (KHTML, like Gecko) Chrome/74.0.3729.169 Safari/537.36"",""on_chrome"":true,""on_mobile"":false,""language"":""en-US"",""screen_resolution"":[1440,900],""platform"":""MacIntel"",""timezone"":""Europe/Berlin""}","20","8634.944999992358","","","1558612163491","23","","","[]","Stuttgart","false","false","9776.79000000353"
"","html-voicekey-response","120","743050","0.0-4.116-0.116","pxwxhfjqrj1rk1r","{""user_agent"":""Mozilla/5.0 (Macintosh; Intel Mac OS X 10_14_4) AppleWebKit/537.36 (KHTML, like Gecko) Chrome/74.0.3729.169 Safari/537.36"",""on_chrome"":true,""on_mobile"":false,""language"":""en-US"",""screen_resolution"":[1440,900],""platform"":""MacIntel"",""timezone"":""Europe/Berlin""}","20","1709.6849999887404","","","1558612177274","22","","Bamberg","[]","Bamberg","true","false","2501.959999994142"
"","html-voicekey-response","121","746583","0.0-4.117-0.117","pxwxhfjqrj1rk1r","{""user_agent"":""Mozilla/5.0 (Macintosh; Intel Mac OS X 10_14_4) AppleWebKit/537.36 (KHTML, like Gecko) Chrome/74.0.3729.169 Safari/537.36"",""on_chrome"":true,""on_mobile"":false,""language"":""en-US"",""screen_resolution"":[1440,900],""platform"":""MacIntel"",""timezone"":""Europe/Berlin""}","20","2234.45500000692","","","1558612180382","11","","Alfeld","[]","Alfeld","true","false","2926.5549999981886"
"","html-voicekey-response","122","752224","0.0-4.118-0.118","pxwxhfjqrj1rk1r","{""user_agent"":""Mozilla/5.0 (Macintosh; Intel Mac OS X 10_14_4) AppleWebKit/537.36 (KHTML, like Gecko) Chrome/74.0.3729.169 Safari/537.36"",""on_chrome"":true,""on_mobile"":false,""language"":""en-US"",""screen_resolution"":[1440,900],""platform"":""MacIntel"",""timezone"":""Europe/Berlin""}","20","4359.005000000097","","","1558612183916","18","","Forchheim","[]","Forchheim","true","false","5034.169999998994"
"","html-voicekey-response","123","755358","0.0-4.119-0.119","pxwxhfjqrj1rk1r","{""user_agent"":""Mozilla/5.0 (Macintosh; Intel Mac OS X 10_14_4) AppleWebKit/537.36 (KHTML, like Gecko) Chrome/74.0.3729.169 Safari/537.36"",""on_chrome"":true,""on_mobile"":false,""language"":""en-US"",""screen_resolution"":[1440,900],""platform"":""MacIntel"",""timezone"":""Europe/Berlin""}","20","1818.409999986971","","","1558612189557","10","","Heidelberg","[]","Heidelberg","true","false","2527.254999993602"
"","html-voicekey-response","124","758175","0.0-4.120-0.120","pxwxhfjqrj1rk1r","{""user_agent"":""Mozilla/5.0 (Macintosh; Intel Mac OS X 10_14_4) AppleWebKit/537.36 (KHTML, like Gecko) Chrome/74.0.3729.169 Safari/537.36"",""on_chrome"":true,""on_mobile"":false,""language"":""en-US"",""screen_resolution"":[1440,900],""platform"":""MacIntel"",""timezone"":""Europe/Berlin""}","20","1650.7750000108267","","","1558612192691","24","","Köln","[]","Köln","true","false","2209.6500000043306"
"","html-voicekey-response","125","762500","0.0-4.121-0.121","pxwxhfjqrj1rk1r","{""user_agent"":""Mozilla/5.0 (Macintosh; Intel Mac OS X 10_14_4) AppleWebKit/537.36 (KHTML, like Gecko) Chrome/74.0.3729.169 Safari/537.36"",""on_chrome"":true,""on_mobile"":false,""language"":""en-US"",""screen_resolution"":[1440,900],""platform"":""MacIntel"",""timezone"":""Europe/Berlin""}","20","3143.6150000025286","","","1558612195507","26","","Freiburg","[]","Freiburg","true","true","3719.2899999936344"
"","html-voicekey-response","126","765616","0.0-4.122-0.122","pxwxhfjqrj1rk1r","{""user_agent"":""Mozilla/5.0 (Macintosh; Intel Mac OS X 10_14_4) AppleWebKit/537.36 (KHTML, like Gecko) Chrome/74.0.3729.169 Safari/537.36"",""on_chrome"":true,""on_mobile"":false,""language"":""en-US"",""screen_resolution"":[1440,900],""platform"":""MacIntel"",""timezone"":""Europe/Berlin""}","20","1802.0199999972015","","","1558612199832","27","","Tübingen","[]","Tübingen","true","true","2509.8999999900116"
"","html-voicekey-response","127","768200","0.0-4.123-0.123","pxwxhfjqrj1rk1r","{""user_agent"":""Mozilla/5.0 (Macintosh; Intel Mac OS X 10_14_4) AppleWebKit/537.36 (KHTML, like Gecko) Chrome/74.0.3729.169 Safari/537.36"",""on_chrome"":true,""on_mobile"":false,""language"":""en-US"",""screen_resolution"":[1440,900],""platform"":""MacIntel"",""timezone"":""Europe/Berlin""}","20","1268.9100000078092","","","1558612202948","26","","Freiburg","[]","Freiburg","true","false","1976.9749999977648"
"","html-voicekey-response","128","770524","0.0-4.124-0.124","pxwxhfjqrj1rk1r","{""user_agent"":""Mozilla/5.0 (Macintosh; Intel Mac OS X 10_14_4) AppleWebKit/537.36 (KHTML, like Gecko) Chrome/74.0.3729.169 Safari/537.36"",""on_chrome"":true,""on_mobile"":false,""language"":""en-US"",""screen_resolution"":[1440,900],""platform"":""MacIntel"",""timezone"":""Europe/Berlin""}","20","1259.5249999956927","","","1558612205532","27","","Tübingen","[]","Tübingen","true","false","1717.6199999958044"
"","html-voicekey-response","129","775991","0.0-4.125-0.125","pxwxhfjqrj1rk1r","{""user_agent"":""Mozilla/5.0 (Macintosh; Intel Mac OS X 10_14_4) AppleWebKit/537.36 (KHTML, like Gecko) Chrome/74.0.3729.169 Safari/537.36"",""on_chrome"":true,""on_mobile"":false,""language"":""en-US"",""screen_resolution"":[1440,900],""platform"":""MacIntel"",""timezone"":""Europe/Berlin""}","20","4219.655000002449","","","1558612207856","23","","Stuttgart","[]","Stuttgart","true","false","4861.355000000913"
"","html-voicekey-response","130","793042","0.0-4.126-0.126","pxwxhfjqrj1rk1r","{""user_agent"":""Mozilla/5.0 (Macintosh; Intel Mac OS X 10_14_4) AppleWebKit/537.36 (KHTML, like Gecko) Chrome/74.0.3729.169 Safari/537.36"",""on_chrome"":true,""on_mobile"":false,""language"":""en-US"",""screen_resolution"":[1440,900],""platform"":""MacIntel"",""timezone"":""Europe/Berlin""}","20","12500.634999998356","","","1558612213323","25","","","[]","Osnabrück","false","false","13044.234999993932"
"","html-voicekey-response","131","796002","0.0-4.127-0.127","pxwxhfjqrj1rk1r","{""user_agent"":""Mozilla/5.0 (Macintosh; Intel Mac OS X 10_14_4) AppleWebKit/537.36 (KHTML, like Gecko) Chrome/74.0.3729.169 Safari/537.36"",""on_chrome"":true,""on_mobile"":false,""language"":""en-US"",""screen_resolution"":[1440,900],""platform"":""MacIntel"",""timezone"":""Europe/Berlin""}","20","1660.7400000010152","","","1558612230374","15","","Nürnberg","[]","Nürnberg","true","false","2352.419999995618"
"","html-voicekey-response","132","798885","0.0-4.128-0.128","pxwxhfjqrj1rk1r","{""user_agent"":""Mozilla/5.0 (Macintosh; Intel Mac OS X 10_14_4) AppleWebKit/537.36 (KHTML, like Gecko) Chrome/74.0.3729.169 Safari/537.36"",""on_chrome"":true,""on_mobile"":false,""language"":""en-US"",""screen_resolution"":[1440,900],""platform"":""MacIntel"",""timezone"":""Europe/Berlin""}","20","1668.8400000073948","","","1558612233334","21","","Konstanz","[]","Konstanz","true","false","2277.655000012601"
"","html-voicekey-response","133","805694","0.0-4.129-0.129","pxwxhfjqrj1rk1r","{""user_agent"":""Mozilla/5.0 (Macintosh; Intel Mac OS X 10_14_4) AppleWebKit/537.36 (KHTML, like Gecko) Chrome/74.0.3729.169 Safari/537.36"",""on_chrome"":true,""on_mobile"":false,""language"":""en-US"",""screen_resolution"":[1440,900],""platform"":""MacIntel"",""timezone"":""Europe/Berlin""}","20","2034.489999999851","","","1558612236218","18","","","[]","Forchheim","false","false","2801.3300000020536"
"","html-voicekey-response","134","809026","0.0-4.130-0.130","pxwxhfjqrj1rk1r","{""user_agent"":""Mozilla/5.0 (Macintosh; Intel Mac OS X 10_14_4) AppleWebKit/537.36 (KHTML, like Gecko) Chrome/74.0.3729.169 Safari/537.36"",""on_chrome"":true,""on_mobile"":false,""language"":""en-US"",""screen_resolution"":[1440,900],""platform"":""MacIntel"",""timezone"":""Europe/Berlin""}","20","1867.659999997914","","","1558612243026","3","","Ingolstadt","[]","Ingolstadt","true","false","2726.37499999837"
"","html-voicekey-response","135","811683","0.0-4.131-0.131","pxwxhfjqrj1rk1r","{""user_agent"":""Mozilla/5.0 (Macintosh; Intel Mac OS X 10_14_4) AppleWebKit/537.36 (KHTML, like Gecko) Chrome/74.0.3729.169 Safari/537.36"",""on_chrome"":true,""on_mobile"":false,""language"":""en-US"",""screen_resolution"":[1440,900],""platform"":""MacIntel"",""timezone"":""Europe/Berlin""}","20","1534.0500000109664","","","1558612246358","23","","Stuttgart","[]","Stuttgart","true","false","2051.065000006929"
"","html-voicekey-response","136","815500","0.0-4.132-0.132","pxwxhfjqrj1rk1r","{""user_agent"":""Mozilla/5.0 (Macintosh; Intel Mac OS X 10_14_4) AppleWebKit/537.36 (KHTML, like Gecko) Chrome/74.0.3729.169 Safari/537.36"",""on_chrome"":true,""on_mobile"":false,""language"":""en-US"",""screen_resolution"":[1440,900],""platform"":""MacIntel"",""timezone"":""Europe/Berlin""}","20","2385.019999995921","","","1558612249016","10","","Heidelberg","[]","Heidelberg","true","false","3211.1799999984214"
"","html-voicekey-response","137","818034","0.0-4.133-0.133","pxwxhfjqrj1rk1r","{""user_agent"":""Mozilla/5.0 (Macintosh; Intel Mac OS X 10_14_4) AppleWebKit/537.36 (KHTML, like Gecko) Chrome/74.0.3729.169 Safari/537.36"",""on_chrome"":true,""on_mobile"":false,""language"":""en-US"",""screen_resolution"":[1440,900],""platform"":""MacIntel"",""timezone"":""Europe/Berlin""}","20","1168.3350000037813","","","1558612252833","17","","Leipzig","[]","Leipzig","true","false","1927.0350000006147"
"","html-voicekey-response","138","831434","0.0-4.134-0.134","pxwxhfjqrj1rk1r","{""user_agent"":""Mozilla/5.0 (Macintosh; Intel Mac OS X 10_14_4) AppleWebKit/537.36 (KHTML, like Gecko) Chrome/74.0.3729.169 Safari/537.36"",""on_chrome"":true,""on_mobile"":false,""language"":""en-US"",""screen_resolution"":[1440,900],""platform"":""MacIntel"",""timezone"":""Europe/Berlin""}","20","8034.114999996591","","","1558612255367","26","","","[]","Freiburg","false","false","9392.769999991287"
"","html-voicekey-response","139","846326","0.0-4.135-0.135","pxwxhfjqrj1rk1r","{""user_agent"":""Mozilla/5.0 (Macintosh; Intel Mac OS X 10_14_4) AppleWebKit/537.36 (KHTML, like Gecko) Chrome/74.0.3729.169 Safari/537.36"",""on_chrome"":true,""on_mobile"":false,""language"":""en-US"",""screen_resolution"":[1440,900],""platform"":""MacIntel"",""timezone"":""Europe/Berlin""}","20","10461.935000008298","","","1558612268767","27","","","[]","Tübingen","false","false","10885.190000000875"
"","html-voicekey-response","140","862593","0.0-4.136-0.136","pxwxhfjqrj1rk1r","{""user_agent"":""Mozilla/5.0 (Macintosh; Intel Mac OS X 10_14_4) AppleWebKit/537.36 (KHTML, like Gecko) Chrome/74.0.3729.169 Safari/537.36"",""on_chrome"":true,""on_mobile"":false,""language"":""en-US"",""screen_resolution"":[1440,900],""platform"":""MacIntel"",""timezone"":""Europe/Berlin""}","20","11766.605000006011","","","1558612283659","25","","","[]","Osnabrück","false","false","12259.04500001343"
"","html-voicekey-response","141","865671","0.0-4.137-0.137","pxwxhfjqrj1rk1r","{""user_agent"":""Mozilla/5.0 (Macintosh; Intel Mac OS X 10_14_4) AppleWebKit/537.36 (KHTML, like Gecko) Chrome/74.0.3729.169 Safari/537.36"",""on_chrome"":true,""on_mobile"":false,""language"":""en-US"",""screen_resolution"":[1440,900],""platform"":""MacIntel"",""timezone"":""Europe/Berlin""}","20","1846.2449999877485","","","1558612299925","16","","Schwangau","[]","Schwangau","true","false","2471.7299999902025"
"","html-voicekey-response","142","868556","0.0-4.138-0.138","pxwxhfjqrj1rk1r","{""user_agent"":""Mozilla/5.0 (Macintosh; Intel Mac OS X 10_14_4) AppleWebKit/537.36 (KHTML, like Gecko) Chrome/74.0.3729.169 Safari/537.36"",""on_chrome"":true,""on_mobile"":false,""language"":""en-US"",""screen_resolution"":[1440,900],""platform"":""MacIntel"",""timezone"":""Europe/Berlin""}","20","1750.9999999982306","","","1558612303005","18","","Forchheim","[]","Forchheim","true","false","2276.704999996582"
"","html-voicekey-response","143","876527","0.0-4.139-0.139","pxwxhfjqrj1rk1r","{""user_agent"":""Mozilla/5.0 (Macintosh; Intel Mac OS X 10_14_4) AppleWebKit/537.36 (KHTML, like Gecko) Chrome/74.0.3729.169 Safari/537.36"",""on_chrome"":true,""on_mobile"":false,""language"":""en-US"",""screen_resolution"":[1440,900],""platform"":""MacIntel"",""timezone"":""Europe/Berlin""}","20","2433.3100000020117","","","1558612305888","26","","","[]","Freiburg","false","false","3965.07500000007"
"","html-voicekey-response","144","885277","0.0-4.140-0.140","pxwxhfjqrj1rk1r","{""user_agent"":""Mozilla/5.0 (Macintosh; Intel Mac OS X 10_14_4) AppleWebKit/537.36 (KHTML, like Gecko) Chrome/74.0.3729.169 Safari/537.36"",""on_chrome"":true,""on_mobile"":false,""language"":""en-US"",""screen_resolution"":[1440,900],""platform"":""MacIntel"",""timezone"":""Europe/Berlin""}","20","3566.690000001318","","","1558612313860","25","","","[]","Osnabrück","false","false","4742.845000000671"
"","html-voicekey-response","145","896518","0.0-4.141-0.141","pxwxhfjqrj1rk1r","{""user_agent"":""Mozilla/5.0 (Macintosh; Intel Mac OS X 10_14_4) AppleWebKit/537.36 (KHTML, like Gecko) Chrome/74.0.3729.169 Safari/537.36"",""on_chrome"":true,""on_mobile"":false,""language"":""en-US"",""screen_resolution"":[1440,900],""platform"":""MacIntel"",""timezone"":""Europe/Berlin""}","20","Infinity","","","1558612322610","27","","Tübingen","[]","Tübingen","true","false","10633.00000000163"
"","html-voicekey-response","146","899413","0.0-4.142-0.142","pxwxhfjqrj1rk1r","{""user_agent"":""Mozilla/5.0 (Macintosh; Intel Mac OS X 10_14_4) AppleWebKit/537.36 (KHTML, like Gecko) Chrome/74.0.3729.169 Safari/537.36"",""on_chrome"":true,""on_mobile"":false,""language"":""en-US"",""screen_resolution"":[1440,900],""platform"":""MacIntel"",""timezone"":""Europe/Berlin""}","20","1811.920000001765","","","1558612333851","23","","Stuttgart","[]","Stuttgart","true","false","2287.3950000066543"
"","html-voicekey-response","147","902580","0.0-4.143-0.143","pxwxhfjqrj1rk1r","{""user_agent"":""Mozilla/5.0 (Macintosh; Intel Mac OS X 10_14_4) AppleWebKit/537.36 (KHTML, like Gecko) Chrome/74.0.3729.169 Safari/537.36"",""on_chrome"":true,""on_mobile"":false,""language"":""en-US"",""screen_resolution"":[1440,900],""platform"":""MacIntel"",""timezone"":""Europe/Berlin""}","20","2016.3750000009081","","","1558612336747","10","","Heidelberg","[]","Heidelberg","true","false","2558.4450000023935"
"","html-voicekey-response","148","910846","0.0-4.144-0.144","pxwxhfjqrj1rk1r","{""user_agent"":""Mozilla/5.0 (Macintosh; Intel Mac OS X 10_14_4) AppleWebKit/537.36 (KHTML, like Gecko) Chrome/74.0.3729.169 Safari/537.36"",""on_chrome"":true,""on_mobile"":false,""language"":""en-US"",""screen_resolution"":[1440,900],""platform"":""MacIntel"",""timezone"":""Europe/Berlin""}","20","2117.269999996852","","","1558612339912","3","","","[]","Ingolstadt","false","false","4259.269999995013"
"","html-voicekey-response","149","915054","0.0-4.145-0.145","pxwxhfjqrj1rk1r","{""user_agent"":""Mozilla/5.0 (Macintosh; Intel Mac OS X 10_14_4) AppleWebKit/537.36 (KHTML, like Gecko) Chrome/74.0.3729.169 Safari/537.36"",""on_chrome"":true,""on_mobile"":false,""language"":""en-US"",""screen_resolution"":[1440,900],""platform"":""MacIntel"",""timezone"":""Europe/Berlin""}","20","2925.5099999953295","","","1558612348179","26","","Freiburg","[]","Freiburg","true","false","3600.8200000069337"
"","html-voicekey-response","150","921621","0.0-4.146-0.146","pxwxhfjqrj1rk1r","{""user_agent"":""Mozilla/5.0 (Macintosh; Intel Mac OS X 10_14_4) AppleWebKit/537.36 (KHTML, like Gecko) Chrome/74.0.3729.169 Safari/537.36"",""on_chrome"":true,""on_mobile"":false,""language"":""en-US"",""screen_resolution"":[1440,900],""platform"":""MacIntel"",""timezone"":""Europe/Berlin""}","20","5266.815000004344","","","1558612352388","25","","Osnabrück","[]","Osnabrück","true","false","5959.070000011707"
"","html-voicekey-response","151","937211","0.0-4.147-0.147","pxwxhfjqrj1rk1r","{""user_agent"":""Mozilla/5.0 (Macintosh; Intel Mac OS X 10_14_4) AppleWebKit/537.36 (KHTML, like Gecko) Chrome/74.0.3729.169 Safari/537.36"",""on_chrome"":true,""on_mobile"":false,""language"":""en-US"",""screen_resolution"":[1440,900],""platform"":""MacIntel"",""timezone"":""Europe/Berlin""}","20","11123.509999999287","","","1558612358954","27","","","[]","Tübingen","false","false","11581.8200000067"
