"value","trial_type","trial_index","time_elapsed","internal_node_id","subject","browser_info","participant_number","rt","responses","view_history","presentation_start_time","id","text","response","keypresses","answer","correct","study","experimenter_rt"
"","call-function","0","2","0.0-0.0","mqsqev36lbbbz8n","{""user_agent"":""Mozilla/5.0 (Macintosh; Intel Mac OS X 10_14_4) AppleWebKit/537.36 (KHTML, like Gecko) Chrome/74.0.3729.169 Safari/537.36"",""on_chrome"":true,""on_mobile"":false,""language"":""en-US"",""screen_resolution"":[1440,900],""platform"":""MacIntel"",""timezone"":""Europe/Berlin""}","21","","","","","","","","","","","",""
"","survey-text","1","4784","0.0-1.0","mqsqev36lbbbz8n","{""user_agent"":""Mozilla/5.0 (Macintosh; Intel Mac OS X 10_14_4) AppleWebKit/537.36 (KHTML, like Gecko) Chrome/74.0.3729.169 Safari/537.36"",""on_chrome"":true,""on_mobile"":false,""language"":""en-US"",""screen_resolution"":[1440,900],""platform"":""MacIntel"",""timezone"":""Europe/Berlin""}","21","4780","{""Q0"":""21""}","","","","","","","","","",""
"","instructions","2","117494","0.0-2.0","mqsqev36lbbbz8n","{""user_agent"":""Mozilla/5.0 (Macintosh; Intel Mac OS X 10_14_4) AppleWebKit/537.36 (KHTML, like Gecko) Chrome/74.0.3729.169 Safari/537.36"",""on_chrome"":true,""on_mobile"":false,""language"":""en-US"",""screen_resolution"":[1440,900],""platform"":""MacIntel"",""timezone"":""Europe/Berlin""}","21","112709","","[{""page_index"":0,""viewing_time"":112709}]","","","","","","","","",""
"","call-function","3","117495","0.0-3.0","mqsqev36lbbbz8n","{""user_agent"":""Mozilla/5.0 (Macintosh; Intel Mac OS X 10_14_4) AppleWebKit/537.36 (KHTML, like Gecko) Chrome/74.0.3729.169 Safari/537.36"",""on_chrome"":true,""on_mobile"":false,""language"":""en-US"",""screen_resolution"":[1440,900],""platform"":""MacIntel"",""timezone"":""Europe/Berlin""}","21","","","","","","","","","","","",""
"","html-voicekey-response","4","121559","0.0-4.0-0.0","mqsqev36lbbbz8n","{""user_agent"":""Mozilla/5.0 (Macintosh; Intel Mac OS X 10_14_4) AppleWebKit/537.36 (KHTML, like Gecko) Chrome/74.0.3729.169 Safari/537.36"",""on_chrome"":true,""on_mobile"":false,""language"":""en-US"",""screen_resolution"":[1440,900],""platform"":""MacIntel"",""timezone"":""Europe/Berlin""}","21","100","","","1559116016975","1","","Magdeburg","[]","Magdeburg","true","true","3458.9649999979883"
"","html-voicekey-response","5","127874","0.0-4.1-0.1","mqsqev36lbbbz8n","{""user_agent"":""Mozilla/5.0 (Macintosh; Intel Mac OS X 10_14_4) AppleWebKit/537.36 (KHTML, like Gecko) Chrome/74.0.3729.169 Safari/537.36"",""on_chrome"":true,""on_mobile"":false,""language"":""en-US"",""screen_resolution"":[1440,900],""platform"":""MacIntel"",""timezone"":""Europe/Berlin""}","21","3451.6500000007277","","","1559116021041","1","","Magdeburg","[]","Magdeburg","true","false","5710.405000001629"
"","html-voicekey-response","6","131050","0.0-4.2-0.2","mqsqev36lbbbz8n","{""user_agent"":""Mozilla/5.0 (Macintosh; Intel Mac OS X 10_14_4) AppleWebKit/537.36 (KHTML, like Gecko) Chrome/74.0.3729.169 Safari/537.36"",""on_chrome"":true,""on_mobile"":false,""language"":""en-US"",""screen_resolution"":[1440,900],""platform"":""MacIntel"",""timezone"":""Europe/Berlin""}","21","1888.1149999995891","","","1559116027354","2","","Berlin","[]","Berlin","true","true","2572.8500000004715"
"","html-voicekey-response","7","134249","0.0-4.3-0.3","mqsqev36lbbbz8n","{""user_agent"":""Mozilla/5.0 (Macintosh; Intel Mac OS X 10_14_4) AppleWebKit/537.36 (KHTML, like Gecko) Chrome/74.0.3729.169 Safari/537.36"",""on_chrome"":true,""on_mobile"":false,""language"":""en-US"",""screen_resolution"":[1440,900],""platform"":""MacIntel"",""timezone"":""Europe/Berlin""}","21","1787.6300000005635","","","1559116030529","2","","Berlin","[]","Berlin","true","false","2596.8450000000303"
"","html-voicekey-response","8","138367","0.0-4.4-0.4","mqsqev36lbbbz8n","{""user_agent"":""Mozilla/5.0 (Macintosh; Intel Mac OS X 10_14_4) AppleWebKit/537.36 (KHTML, like Gecko) Chrome/74.0.3729.169 Safari/537.36"",""on_chrome"":true,""on_mobile"":false,""language"":""en-US"",""screen_resolution"":[1440,900],""platform"":""MacIntel"",""timezone"":""Europe/Berlin""}","21","2339.3750000012283","","","1559116033728","3","","Ingolstadt","[]","Ingolstadt","true","true","3516.1149999985355"
"","html-voicekey-response","9","143024","0.0-4.5-0.5","mqsqev36lbbbz8n","{""user_agent"":""Mozilla/5.0 (Macintosh; Intel Mac OS X 10_14_4) AppleWebKit/537.36 (KHTML, like Gecko) Chrome/74.0.3729.169 Safari/537.36"",""on_chrome"":true,""on_mobile"":false,""language"":""en-US"",""screen_resolution"":[1440,900],""platform"":""MacIntel"",""timezone"":""Europe/Berlin""}","21","3053.6100000006904","","","1559116037846","4","","Würzburg","[]","Würzburg","true","true","4054.1100000009465"
"","html-voicekey-response","10","152140","0.0-4.6-0.6","mqsqev36lbbbz8n","{""user_agent"":""Mozilla/5.0 (Macintosh; Intel Mac OS X 10_14_4) AppleWebKit/537.36 (KHTML, like Gecko) Chrome/74.0.3729.169 Safari/537.36"",""on_chrome"":true,""on_mobile"":false,""language"":""en-US"",""screen_resolution"":[1440,900],""platform"":""MacIntel"",""timezone"":""Europe/Berlin""}","21","3903.7499999993365","","","1559116042503","3","","","[]","Ingolstadt","false","false","5113.695000000007"
"","html-voicekey-response","11","156802","0.0-4.7-0.7","mqsqev36lbbbz8n","{""user_agent"":""Mozilla/5.0 (Macintosh; Intel Mac OS X 10_14_4) AppleWebKit/537.36 (KHTML, like Gecko) Chrome/74.0.3729.169 Safari/537.36"",""on_chrome"":true,""on_mobile"":false,""language"":""en-US"",""screen_resolution"":[1440,900],""platform"":""MacIntel"",""timezone"":""Europe/Berlin""}","21","100","","","1559116051619","4","","Würzburg","[]","Würzburg","true","false","4060.0849999973434"
"","html-voicekey-response","12","162802","0.0-4.8-0.8","mqsqev36lbbbz8n","{""user_agent"":""Mozilla/5.0 (Macintosh; Intel Mac OS X 10_14_4) AppleWebKit/537.36 (KHTML, like Gecko) Chrome/74.0.3729.169 Safari/537.36"",""on_chrome"":true,""on_mobile"":false,""language"":""en-US"",""screen_resolution"":[1440,900],""platform"":""MacIntel"",""timezone"":""Europe/Berlin""}","21","289.4499999982421","","","1559116056281","5","","Aachen","[]","Aachen","true","true","5397.619999999733"
"","html-voicekey-response","13","166643","0.0-4.9-0.9","mqsqev36lbbbz8n","{""user_agent"":""Mozilla/5.0 (Macintosh; Intel Mac OS X 10_14_4) AppleWebKit/537.36 (KHTML, like Gecko) Chrome/74.0.3729.169 Safari/537.36"",""on_chrome"":true,""on_mobile"":false,""language"":""en-US"",""screen_resolution"":[1440,900],""platform"":""MacIntel"",""timezone"":""Europe/Berlin""}","21","2446.3199999971316","","","1559116062281","1","","Magdeburg","[]","Magdeburg","true","false","3239.6300000000338"
"","html-voicekey-response","14","169810","0.0-4.10-0.10","mqsqev36lbbbz8n","{""user_agent"":""Mozilla/5.0 (Macintosh; Intel Mac OS X 10_14_4) AppleWebKit/537.36 (KHTML, like Gecko) Chrome/74.0.3729.169 Safari/537.36"",""on_chrome"":true,""on_mobile"":false,""language"":""en-US"",""screen_resolution"":[1440,900],""platform"":""MacIntel"",""timezone"":""Europe/Berlin""}","21","1321.1949999984704","","","1559116066123","5","","Aachen","[]","Aachen","true","false","2563.610000001063"
"","html-voicekey-response","15","172793","0.0-4.11-0.11","mqsqev36lbbbz8n","{""user_agent"":""Mozilla/5.0 (Macintosh; Intel Mac OS X 10_14_4) AppleWebKit/537.36 (KHTML, like Gecko) Chrome/74.0.3729.169 Safari/537.36"",""on_chrome"":true,""on_mobile"":false,""language"":""en-US"",""screen_resolution"":[1440,900],""platform"":""MacIntel"",""timezone"":""Europe/Berlin""}","21","1438.7049999985088","","","1559116069289","2","","Berlin","[]","Berlin","true","false","2380.349999999453"
"","html-voicekey-response","16","176801","0.0-4.12-0.12","mqsqev36lbbbz8n","{""user_agent"":""Mozilla/5.0 (Macintosh; Intel Mac OS X 10_14_4) AppleWebKit/537.36 (KHTML, like Gecko) Chrome/74.0.3729.169 Safari/537.36"",""on_chrome"":true,""on_mobile"":false,""language"":""en-US"",""screen_resolution"":[1440,900],""platform"":""MacIntel"",""timezone"":""Europe/Berlin""}","21","2006.035000000184","","","1559116072272","6","","Dresden","[]","Dresden","true","true","3406.474999999773"
"","html-voicekey-response","17","181267","0.0-4.13-0.13","mqsqev36lbbbz8n","{""user_agent"":""Mozilla/5.0 (Macintosh; Intel Mac OS X 10_14_4) AppleWebKit/537.36 (KHTML, like Gecko) Chrome/74.0.3729.169 Safari/537.36"",""on_chrome"":true,""on_mobile"":false,""language"":""en-US"",""screen_resolution"":[1440,900],""platform"":""MacIntel"",""timezone"":""Europe/Berlin""}","21","2571.004999999632","","","1559116076281","7","","Erfurt","[]","Erfurt","true","true","3863.375000000815"
"","html-voicekey-response","18","184768","0.0-4.14-0.14","mqsqev36lbbbz8n","{""user_agent"":""Mozilla/5.0 (Macintosh; Intel Mac OS X 10_14_4) AppleWebKit/537.36 (KHTML, like Gecko) Chrome/74.0.3729.169 Safari/537.36"",""on_chrome"":true,""on_mobile"":false,""language"":""en-US"",""screen_resolution"":[1440,900],""platform"":""MacIntel"",""timezone"":""Europe/Berlin""}","21","1488.7299999989687","","","1559116080747","6","","Dresden","[]","Dresden","true","false","2898.105000000214"
"","html-voicekey-response","19","187591","0.0-4.15-0.15","mqsqev36lbbbz8n","{""user_agent"":""Mozilla/5.0 (Macintosh; Intel Mac OS X 10_14_4) AppleWebKit/537.36 (KHTML, like Gecko) Chrome/74.0.3729.169 Safari/537.36"",""on_chrome"":true,""on_mobile"":false,""language"":""en-US"",""screen_resolution"":[1440,900],""platform"":""MacIntel"",""timezone"":""Europe/Berlin""}","21","995.8949999980454","","","1559116084247","7","","Erfurt","[]","Erfurt","true","false","2220.9599999987404"
"","html-voicekey-response","20","191676","0.0-4.16-0.16","mqsqev36lbbbz8n","{""user_agent"":""Mozilla/5.0 (Macintosh; Intel Mac OS X 10_14_4) AppleWebKit/537.36 (KHTML, like Gecko) Chrome/74.0.3729.169 Safari/537.36"",""on_chrome"":true,""on_mobile"":false,""language"":""en-US"",""screen_resolution"":[1440,900],""platform"":""MacIntel"",""timezone"":""Europe/Berlin""}","21","2422.6699999979523","","","1559116087071","8","","Gotha","[]","Gotha","true","true","3481.680000000779"
"","html-voicekey-response","21","201026","0.0-4.17-0.17","mqsqev36lbbbz8n","{""user_agent"":""Mozilla/5.0 (Macintosh; Intel Mac OS X 10_14_4) AppleWebKit/537.36 (KHTML, like Gecko) Chrome/74.0.3729.169 Safari/537.36"",""on_chrome"":true,""on_mobile"":false,""language"":""en-US"",""screen_resolution"":[1440,900],""platform"":""MacIntel"",""timezone"":""Europe/Berlin""}","21","4120.509999998676","","","1559116091156","3","","Ingolstadt","[]","Ingolstadt","true","false","8745.589999998629"
"","html-voicekey-response","22","210283","0.0-4.18-0.18","mqsqev36lbbbz8n","{""user_agent"":""Mozilla/5.0 (Macintosh; Intel Mac OS X 10_14_4) AppleWebKit/537.36 (KHTML, like Gecko) Chrome/74.0.3729.169 Safari/537.36"",""on_chrome"":true,""on_mobile"":false,""language"":""en-US"",""screen_resolution"":[1440,900],""platform"":""MacIntel"",""timezone"":""Europe/Berlin""}","21","3843.7199999987847","","","1559116100507","8","","","[]","Gotha","false","false","5253.769999999349"
"","html-voicekey-response","23","213726","0.0-4.19-0.19","mqsqev36lbbbz8n","{""user_agent"":""Mozilla/5.0 (Macintosh; Intel Mac OS X 10_14_4) AppleWebKit/537.36 (KHTML, like Gecko) Chrome/74.0.3729.169 Safari/537.36"",""on_chrome"":true,""on_mobile"":false,""language"":""en-US"",""screen_resolution"":[1440,900],""platform"":""MacIntel"",""timezone"":""Europe/Berlin""}","21","2214.5500000022644","","","1559116109763","4","","Würzburg","[]","Würzburg","true","false","2839.9700000009034"
"","html-voicekey-response","24","219628","0.0-4.20-0.20","mqsqev36lbbbz8n","{""user_agent"":""Mozilla/5.0 (Macintosh; Intel Mac OS X 10_14_4) AppleWebKit/537.36 (KHTML, like Gecko) Chrome/74.0.3729.169 Safari/537.36"",""on_chrome"":true,""on_mobile"":false,""language"":""en-US"",""screen_resolution"":[1440,900],""platform"":""MacIntel"",""timezone"":""Europe/Berlin""}","21","3721.4199999996986","","","1559116113205","9","","München","[]","München","true","true","5297.630000000936"
"","html-voicekey-response","25","231050","0.0-4.21-0.21","mqsqev36lbbbz8n","{""user_agent"":""Mozilla/5.0 (Macintosh; Intel Mac OS X 10_14_4) AppleWebKit/537.36 (KHTML, like Gecko) Chrome/74.0.3729.169 Safari/537.36"",""on_chrome"":true,""on_mobile"":false,""language"":""en-US"",""screen_resolution"":[1440,900],""platform"":""MacIntel"",""timezone"":""Europe/Berlin""}","21","6358.770000000577","","","1559116119109","5","","","[]","Aachen","false","false","7418.45000000103"
"","html-voicekey-response","26","234860","0.0-4.22-0.22","mqsqev36lbbbz8n","{""user_agent"":""Mozilla/5.0 (Macintosh; Intel Mac OS X 10_14_4) AppleWebKit/537.36 (KHTML, like Gecko) Chrome/74.0.3729.169 Safari/537.36"",""on_chrome"":true,""on_mobile"":false,""language"":""en-US"",""screen_resolution"":[1440,900],""platform"":""MacIntel"",""timezone"":""Europe/Berlin""}","21","2071.4700000006183","","","1559116130530","9","","München","[]","München","true","false","3207.0950000015728"
"","html-voicekey-response","27","238760","0.0-4.23-0.23","mqsqev36lbbbz8n","{""user_agent"":""Mozilla/5.0 (Macintosh; Intel Mac OS X 10_14_4) AppleWebKit/537.36 (KHTML, like Gecko) Chrome/74.0.3729.169 Safari/537.36"",""on_chrome"":true,""on_mobile"":false,""language"":""en-US"",""screen_resolution"":[1440,900],""platform"":""MacIntel"",""timezone"":""Europe/Berlin""}","21","2154.1400000003982","","","1559116134341","6","","Dresden","[]","Dresden","true","false","3296.3999999992666"
"","html-voicekey-response","28","242143","0.0-4.24-0.24","mqsqev36lbbbz8n","{""user_agent"":""Mozilla/5.0 (Macintosh; Intel Mac OS X 10_14_4) AppleWebKit/537.36 (KHTML, like Gecko) Chrome/74.0.3729.169 Safari/537.36"",""on_chrome"":true,""on_mobile"":false,""language"":""en-US"",""screen_resolution"":[1440,900],""platform"":""MacIntel"",""timezone"":""Europe/Berlin""}","21","1751.4800000006567","","","1559116138243","7","","Erfurt","[]","Erfurt","true","false","2777.0700000000943"
"","html-voicekey-response","29","249185","0.0-4.25-0.25","mqsqev36lbbbz8n","{""user_agent"":""Mozilla/5.0 (Macintosh; Intel Mac OS X 10_14_4) AppleWebKit/537.36 (KHTML, like Gecko) Chrome/74.0.3729.169 Safari/537.36"",""on_chrome"":true,""on_mobile"":false,""language"":""en-US"",""screen_resolution"":[1440,900],""platform"":""MacIntel"",""timezone"":""Europe/Berlin""}","21","5613.655000002682","","","1559116141622","3","","Ingolstadt","[]","Ingolstadt","true","false","6439.635000002454"
"","html-voicekey-response","30","252452","0.0-4.26-0.26","mqsqev36lbbbz8n","{""user_agent"":""Mozilla/5.0 (Macintosh; Intel Mac OS X 10_14_4) AppleWebKit/537.36 (KHTML, like Gecko) Chrome/74.0.3729.169 Safari/537.36"",""on_chrome"":true,""on_mobile"":false,""language"":""en-US"",""screen_resolution"":[1440,900],""platform"":""MacIntel"",""timezone"":""Europe/Berlin""}","21","1737.9600000002306","","","1559116148665","1","","Magdeburg","[]","Magdeburg","true","false","2663.8200000015786"
"","html-voicekey-response","31","256159","0.0-4.27-0.27","mqsqev36lbbbz8n","{""user_agent"":""Mozilla/5.0 (Macintosh; Intel Mac OS X 10_14_4) AppleWebKit/537.36 (KHTML, like Gecko) Chrome/74.0.3729.169 Safari/537.36"",""on_chrome"":true,""on_mobile"":false,""language"":""en-US"",""screen_resolution"":[1440,900],""platform"":""MacIntel"",""timezone"":""Europe/Berlin""}","21","2345.849999999546","","","1559116151931","8","","Gotha","[]","Gotha","true","false","3104.974999998376"
"","html-voicekey-response","32","260710","0.0-4.28-0.28","mqsqev36lbbbz8n","{""user_agent"":""Mozilla/5.0 (Macintosh; Intel Mac OS X 10_14_4) AppleWebKit/537.36 (KHTML, like Gecko) Chrome/74.0.3729.169 Safari/537.36"",""on_chrome"":true,""on_mobile"":false,""language"":""en-US"",""screen_resolution"":[1440,900],""platform"":""MacIntel"",""timezone"":""Europe/Berlin""}","21","3005.1250000013156","","","1559116155640","10","","Heidelberg","[]","Heidelberg","true","true","3946.619999998773"
"","html-voicekey-response","33","267012","0.0-4.29-0.29","mqsqev36lbbbz8n","{""user_agent"":""Mozilla/5.0 (Macintosh; Intel Mac OS X 10_14_4) AppleWebKit/537.36 (KHTML, like Gecko) Chrome/74.0.3729.169 Safari/537.36"",""on_chrome"":true,""on_mobile"":false,""language"":""en-US"",""screen_resolution"":[1440,900],""platform"":""MacIntel"",""timezone"":""Europe/Berlin""}","21","5001.244999997469","","","1559116160192","5","","Aachen","[]","Aachen","true","false","5694.454999997106"
"","html-voicekey-response","34","277951","0.0-4.30-0.30","mqsqev36lbbbz8n","{""user_agent"":""Mozilla/5.0 (Macintosh; Intel Mac OS X 10_14_4) AppleWebKit/537.36 (KHTML, like Gecko) Chrome/74.0.3729.169 Safari/537.36"",""on_chrome"":true,""on_mobile"":false,""language"":""en-US"",""screen_resolution"":[1440,900],""platform"":""MacIntel"",""timezone"":""Europe/Berlin""}","21","9610.190000001085","","","1559116166491","10","","Heidelberg","[]","Heidelberg","true","false","10336.119999999937"
"","html-voicekey-response","35","283428","0.0-4.31-0.31","mqsqev36lbbbz8n","{""user_agent"":""Mozilla/5.0 (Macintosh; Intel Mac OS X 10_14_4) AppleWebKit/537.36 (KHTML, like Gecko) Chrome/74.0.3729.169 Safari/537.36"",""on_chrome"":true,""on_mobile"":false,""language"":""en-US"",""screen_resolution"":[1440,900],""platform"":""MacIntel"",""timezone"":""Europe/Berlin""}","21","3982.8500000019326","","","1559116177431","3","","Ingolstadt","[]","Ingolstadt","true","false","4874.980000000447"
"","html-voicekey-response","36","286711","0.0-4.32-0.32","mqsqev36lbbbz8n","{""user_agent"":""Mozilla/5.0 (Macintosh; Intel Mac OS X 10_14_4) AppleWebKit/537.36 (KHTML, like Gecko) Chrome/74.0.3729.169 Safari/537.36"",""on_chrome"":true,""on_mobile"":false,""language"":""en-US"",""screen_resolution"":[1440,900],""platform"":""MacIntel"",""timezone"":""Europe/Berlin""}","21","1971.6349999997533","","","1559116182908","9","","München","[]","München","true","false","2679.6749999994063"
"","html-voicekey-response","37","292252","0.0-4.33-0.33","mqsqev36lbbbz8n","{""user_agent"":""Mozilla/5.0 (Macintosh; Intel Mac OS X 10_14_4) AppleWebKit/537.36 (KHTML, like Gecko) Chrome/74.0.3729.169 Safari/537.36"",""on_chrome"":true,""on_mobile"":false,""language"":""en-US"",""screen_resolution"":[1440,900],""platform"":""MacIntel"",""timezone"":""Europe/Berlin""}","21","4122.414999999664","","","1559116186191","11","","Alfeld","[]","Alfeld","true","true","4937.874999999651"
"","html-voicekey-response","38","299337","0.0-4.34-0.34","mqsqev36lbbbz8n","{""user_agent"":""Mozilla/5.0 (Macintosh; Intel Mac OS X 10_14_4) AppleWebKit/537.36 (KHTML, like Gecko) Chrome/74.0.3729.169 Safari/537.36"",""on_chrome"":true,""on_mobile"":false,""language"":""en-US"",""screen_resolution"":[1440,900],""platform"":""MacIntel"",""timezone"":""Europe/Berlin""}","21","5805.084999998018","","","1559116191732","5","","Aachen","[]","Aachen","true","false","6480.104999998759"
"","html-voicekey-response","39","303642","0.0-4.35-0.35","mqsqev36lbbbz8n","{""user_agent"":""Mozilla/5.0 (Macintosh; Intel Mac OS X 10_14_4) AppleWebKit/537.36 (KHTML, like Gecko) Chrome/74.0.3729.169 Safari/537.36"",""on_chrome"":true,""on_mobile"":false,""language"":""en-US"",""screen_resolution"":[1440,900],""platform"":""MacIntel"",""timezone"":""Europe/Berlin""}","21","2575.539999999665","","","1559116198819","11","","Alfeld","[]","Alfeld","true","false","3700.604999998235"
"","html-voicekey-response","40","309575","0.0-4.36-0.36","mqsqev36lbbbz8n","{""user_agent"":""Mozilla/5.0 (Macintosh; Intel Mac OS X 10_14_4) AppleWebKit/537.36 (KHTML, like Gecko) Chrome/74.0.3729.169 Safari/537.36"",""on_chrome"":true,""on_mobile"":false,""language"":""en-US"",""screen_resolution"":[1440,900],""platform"":""MacIntel"",""timezone"":""Europe/Berlin""}","21","Infinity","","","1559116203122","3","","Ingolstadt","[]","Ingolstadt","true","false","5330.004999999772"
"","html-voicekey-response","41","314184","0.0-4.37-0.37","mqsqev36lbbbz8n","{""user_agent"":""Mozilla/5.0 (Macintosh; Intel Mac OS X 10_14_4) AppleWebKit/537.36 (KHTML, like Gecko) Chrome/74.0.3729.169 Safari/537.36"",""on_chrome"":true,""on_mobile"":false,""language"":""en-US"",""screen_resolution"":[1440,900],""platform"":""MacIntel"",""timezone"":""Europe/Berlin""}","21","3194.499999999453","","","1559116209056","12","","Dessau","[]","Dessau","true","true","4004.965000000084"
"","html-voicekey-response","42","320717","0.0-4.38-0.38","mqsqev36lbbbz8n","{""user_agent"":""Mozilla/5.0 (Macintosh; Intel Mac OS X 10_14_4) AppleWebKit/537.36 (KHTML, like Gecko) Chrome/74.0.3729.169 Safari/537.36"",""on_chrome"":true,""on_mobile"":false,""language"":""en-US"",""screen_resolution"":[1440,900],""platform"":""MacIntel"",""timezone"":""Europe/Berlin""}","21","5220.5000000011405","","","1559116213664","5","","Aachen","[]","Aachen","true","false","5929.430000000168"
"","html-voicekey-response","43","324225","0.0-4.39-0.39","mqsqev36lbbbz8n","{""user_agent"":""Mozilla/5.0 (Macintosh; Intel Mac OS X 10_14_4) AppleWebKit/537.36 (KHTML, like Gecko) Chrome/74.0.3729.169 Safari/537.36"",""on_chrome"":true,""on_mobile"":false,""language"":""en-US"",""screen_resolution"":[1440,900],""platform"":""MacIntel"",""timezone"":""Europe/Berlin""}","21","2095.115000001772","","","1559116220197","12","","Dessau","[]","Dessau","true","false","2904.340000001015"
"","html-voicekey-response","44","330491","0.0-4.40-0.40","mqsqev36lbbbz8n","{""user_agent"":""Mozilla/5.0 (Macintosh; Intel Mac OS X 10_14_4) AppleWebKit/537.36 (KHTML, like Gecko) Chrome/74.0.3729.169 Safari/537.36"",""on_chrome"":true,""on_mobile"":false,""language"":""en-US"",""screen_resolution"":[1440,900],""platform"":""MacIntel"",""timezone"":""Europe/Berlin""}","21","4954.4700000022185","","","1559116223705","10","","Heidelberg","[]","Heidelberg","true","false","5662.850000000559"
"","html-voicekey-response","45","334966","0.0-4.41-0.41","mqsqev36lbbbz8n","{""user_agent"":""Mozilla/5.0 (Macintosh; Intel Mac OS X 10_14_4) AppleWebKit/537.36 (KHTML, like Gecko) Chrome/74.0.3729.169 Safari/537.36"",""on_chrome"":true,""on_mobile"":false,""language"":""en-US"",""screen_resolution"":[1440,900],""platform"":""MacIntel"",""timezone"":""Europe/Berlin""}","21","2910.8949999989477","","","1559116229972","3","","Ingolstadt","[]","Ingolstadt","true","false","3871.114999998128"
"","html-voicekey-response","46","338666","0.0-4.42-0.42","mqsqev36lbbbz8n","{""user_agent"":""Mozilla/5.0 (Macintosh; Intel Mac OS X 10_14_4) AppleWebKit/537.36 (KHTML, like Gecko) Chrome/74.0.3729.169 Safari/537.36"",""on_chrome"":true,""on_mobile"":false,""language"":""en-US"",""screen_resolution"":[1440,900],""platform"":""MacIntel"",""timezone"":""Europe/Berlin""}","21","2368.589999999944","","","1559116234449","13","","Chemnitz","[]","Chemnitz","true","true","3094.1349999994272"
"","html-voicekey-response","47","343399","0.0-4.43-0.43","mqsqev36lbbbz8n","{""user_agent"":""Mozilla/5.0 (Macintosh; Intel Mac OS X 10_14_4) AppleWebKit/537.36 (KHTML, like Gecko) Chrome/74.0.3729.169 Safari/537.36"",""on_chrome"":true,""on_mobile"":false,""language"":""en-US"",""screen_resolution"":[1440,900],""platform"":""MacIntel"",""timezone"":""Europe/Berlin""}","21","3319.245000000438","","","1559116238148","5","","Aachen","[]","Aachen","true","false","4127.870000000286"
"","html-voicekey-response","48","362027","0.0-4.44-0.44","mqsqev36lbbbz8n","{""user_agent"":""Mozilla/5.0 (Macintosh; Intel Mac OS X 10_14_4) AppleWebKit/537.36 (KHTML, like Gecko) Chrome/74.0.3729.169 Safari/537.36"",""on_chrome"":true,""on_mobile"":false,""language"":""en-US"",""screen_resolution"":[1440,900],""platform"":""MacIntel"",""timezone"":""Europe/Berlin""}","21","12930.390000003017","","","1559116242882","13","","","[]","Chemnitz","false","false","14621.69999999972"
"","html-voicekey-response","49","366723","0.0-4.45-0.45","mqsqev36lbbbz8n","{""user_agent"":""Mozilla/5.0 (Macintosh; Intel Mac OS X 10_14_4) AppleWebKit/537.36 (KHTML, like Gecko) Chrome/74.0.3729.169 Safari/537.36"",""on_chrome"":true,""on_mobile"":false,""language"":""en-US"",""screen_resolution"":[1440,900],""platform"":""MacIntel"",""timezone"":""Europe/Berlin""}","21","3331.959999997495","","","1559116261509","11","","Alfeld","[]","Alfeld","true","false","4090.5949999978184"
"","html-voicekey-response","50","370681","0.0-4.46-0.46","mqsqev36lbbbz8n","{""user_agent"":""Mozilla/5.0 (Macintosh; Intel Mac OS X 10_14_4) AppleWebKit/537.36 (KHTML, like Gecko) Chrome/74.0.3729.169 Safari/537.36"",""on_chrome"":true,""on_mobile"":false,""language"":""en-US"",""screen_resolution"":[1440,900],""platform"":""MacIntel"",""timezone"":""Europe/Berlin""}","21","2488.4149999978604","","","1559116266202","3","","Ingolstadt","[]","Ingolstadt","true","false","3355.844999998226"
"","html-voicekey-response","51","377214","0.0-4.47-0.47","mqsqev36lbbbz8n","{""user_agent"":""Mozilla/5.0 (Macintosh; Intel Mac OS X 10_14_4) AppleWebKit/537.36 (KHTML, like Gecko) Chrome/74.0.3729.169 Safari/537.36"",""on_chrome"":true,""on_mobile"":false,""language"":""en-US"",""screen_resolution"":[1440,900],""platform"":""MacIntel"",""timezone"":""Europe/Berlin""}","21","5020.5850000000555","","","1559116270161","10","","Heidelberg","[]","Heidelberg","true","false","5930.065000000468"
"","html-voicekey-response","52","380055","0.0-4.48-0.48","mqsqev36lbbbz8n","{""user_agent"":""Mozilla/5.0 (Macintosh; Intel Mac OS X 10_14_4) AppleWebKit/537.36 (KHTML, like Gecko) Chrome/74.0.3729.169 Safari/537.36"",""on_chrome"":true,""on_mobile"":false,""language"":""en-US"",""screen_resolution"":[1440,900],""platform"":""MacIntel"",""timezone"":""Europe/Berlin""}","21","1454.6050000006567","","","1559116276694","12","","Dessau","[]","Dessau","true","false","2237.9599999985658"
"","html-voicekey-response","53","383755","0.0-4.49-0.49","mqsqev36lbbbz8n","{""user_agent"":""Mozilla/5.0 (Macintosh; Intel Mac OS X 10_14_4) AppleWebKit/537.36 (KHTML, like Gecko) Chrome/74.0.3729.169 Safari/537.36"",""on_chrome"":true,""on_mobile"":false,""language"":""en-US"",""screen_resolution"":[1440,900],""platform"":""MacIntel"",""timezone"":""Europe/Berlin""}","21","2355.115000000142","","","1559116279535","5","","Aachen","[]","Aachen","true","false","3097.7899999998044"
"","html-voicekey-response","54","386472","0.0-4.50-0.50","mqsqev36lbbbz8n","{""user_agent"":""Mozilla/5.0 (Macintosh; Intel Mac OS X 10_14_4) AppleWebKit/537.36 (KHTML, like Gecko) Chrome/74.0.3729.169 Safari/537.36"",""on_chrome"":true,""on_mobile"":false,""language"":""en-US"",""screen_resolution"":[1440,900],""platform"":""MacIntel"",""timezone"":""Europe/Berlin""}","21","1337.519999999006","","","1559116283236","8","","Gotha","[]","Gotha","true","false","2113.249999998545"
"","html-voicekey-response","55","389273","0.0-4.51-0.51","mqsqev36lbbbz8n","{""user_agent"":""Mozilla/5.0 (Macintosh; Intel Mac OS X 10_14_4) AppleWebKit/537.36 (KHTML, like Gecko) Chrome/74.0.3729.169 Safari/537.36"",""on_chrome"":true,""on_mobile"":false,""language"":""en-US"",""screen_resolution"":[1440,900],""platform"":""MacIntel"",""timezone"":""Europe/Berlin""}","21","1587.659999999078","","","1559116285952","3","","Ingolstadt","[]","Ingolstadt","true","false","2196.7299999996903"
"","html-voicekey-response","56","394563","0.0-4.52-0.52","mqsqev36lbbbz8n","{""user_agent"":""Mozilla/5.0 (Macintosh; Intel Mac OS X 10_14_4) AppleWebKit/537.36 (KHTML, like Gecko) Chrome/74.0.3729.169 Safari/537.36"",""on_chrome"":true,""on_mobile"":false,""language"":""en-US"",""screen_resolution"":[1440,900],""platform"":""MacIntel"",""timezone"":""Europe/Berlin""}","21","100","","","1559116288753","14","","Potsdam","[]","Potsdam","true","true","4686.969999998866"
"","html-voicekey-response","57","417863","0.0-4.53-0.53","mqsqev36lbbbz8n","{""user_agent"":""Mozilla/5.0 (Macintosh; Intel Mac OS X 10_14_4) AppleWebKit/537.36 (KHTML, like Gecko) Chrome/74.0.3729.169 Safari/537.36"",""on_chrome"":true,""on_mobile"":false,""language"":""en-US"",""screen_resolution"":[1440,900],""platform"":""MacIntel"",""timezone"":""Europe/Berlin""}","21","21720.075000002726","","","1559116294043","13","","Chemnitz","[]","Chemnitz","true","false","22696.210000001825"
"","html-voicekey-response","58","421252","0.0-4.54-0.54","mqsqev36lbbbz8n","{""user_agent"":""Mozilla/5.0 (Macintosh; Intel Mac OS X 10_14_4) AppleWebKit/537.36 (KHTML, like Gecko) Chrome/74.0.3729.169 Safari/537.36"",""on_chrome"":true,""on_mobile"":false,""language"":""en-US"",""screen_resolution"":[1440,900],""platform"":""MacIntel"",""timezone"":""Europe/Berlin""}","21","2177.219999999425","","","1559116317343","14","","Potsdam","[]","Potsdam","true","false","2785.919999998412"
"","html-voicekey-response","59","424601","0.0-4.55-0.55","mqsqev36lbbbz8n","{""user_agent"":""Mozilla/5.0 (Macintosh; Intel Mac OS X 10_14_4) AppleWebKit/537.36 (KHTML, like Gecko) Chrome/74.0.3729.169 Safari/537.36"",""on_chrome"":true,""on_mobile"":false,""language"":""en-US"",""screen_resolution"":[1440,900],""platform"":""MacIntel"",""timezone"":""Europe/Berlin""}","21","2037.9000000009896","","","1559116320732","10","","Heidelberg","[]","Heidelberg","true","false","2746.63000000146"
"","html-voicekey-response","60","428538","0.0-4.56-0.56","mqsqev36lbbbz8n","{""user_agent"":""Mozilla/5.0 (Macintosh; Intel Mac OS X 10_14_4) AppleWebKit/537.36 (KHTML, like Gecko) Chrome/74.0.3729.169 Safari/537.36"",""on_chrome"":true,""on_mobile"":false,""language"":""en-US"",""screen_resolution"":[1440,900],""platform"":""MacIntel"",""timezone"":""Europe/Berlin""}","21","2587.774999998021","","","1559116324082","11","","Alfeld","[]","Alfeld","true","false","3330.3949999972247"
"","html-voicekey-response","61","431659","0.0-4.57-0.57","mqsqev36lbbbz8n","{""user_agent"":""Mozilla/5.0 (Macintosh; Intel Mac OS X 10_14_4) AppleWebKit/537.36 (KHTML, like Gecko) Chrome/74.0.3729.169 Safari/537.36"",""on_chrome"":true,""on_mobile"":false,""language"":""en-US"",""screen_resolution"":[1440,900],""platform"":""MacIntel"",""timezone"":""Europe/Berlin""}","21","1859.1599999979721","","","1559116328019","3","","Ingolstadt","[]","Ingolstadt","true","false","2517.6050000009127"
"","html-voicekey-response","62","434893","0.0-4.58-0.58","mqsqev36lbbbz8n","{""user_agent"":""Mozilla/5.0 (Macintosh; Intel Mac OS X 10_14_4) AppleWebKit/537.36 (KHTML, like Gecko) Chrome/74.0.3729.169 Safari/537.36"",""on_chrome"":true,""on_mobile"":false,""language"":""en-US"",""screen_resolution"":[1440,900],""platform"":""MacIntel"",""timezone"":""Europe/Berlin""}","21","1870.885000001907","","","1559116331139","5","","Aachen","[]","Aachen","true","false","2630.2900000009686"
"","html-voicekey-response","63","437860","0.0-4.59-0.59","mqsqev36lbbbz8n","{""user_agent"":""Mozilla/5.0 (Macintosh; Intel Mac OS X 10_14_4) AppleWebKit/537.36 (KHTML, like Gecko) Chrome/74.0.3729.169 Safari/537.36"",""on_chrome"":true,""on_mobile"":false,""language"":""en-US"",""screen_resolution"":[1440,900],""platform"":""MacIntel"",""timezone"":""Europe/Berlin""}","21","1770.4950000023587","","","1559116334374","2","","Berlin","[]","Berlin","true","false","2362.9000000000815"
"","html-voicekey-response","64","442983","0.0-4.60-0.60","mqsqev36lbbbz8n","{""user_agent"":""Mozilla/5.0 (Macintosh; Intel Mac OS X 10_14_4) AppleWebKit/537.36 (KHTML, like Gecko) Chrome/74.0.3729.169 Safari/537.36"",""on_chrome"":true,""on_mobile"":false,""language"":""en-US"",""screen_resolution"":[1440,900],""platform"":""MacIntel"",""timezone"":""Europe/Berlin""}","21","3819.274999999709","","","1559116337341","13","","Chemnitz","[]","Chemnitz","true","false","4519.075000000186"
"","html-voicekey-response","65","459733","0.0-4.61-0.61","mqsqev36lbbbz8n","{""user_agent"":""Mozilla/5.0 (Macintosh; Intel Mac OS X 10_14_4) AppleWebKit/537.36 (KHTML, like Gecko) Chrome/74.0.3729.169 Safari/537.36"",""on_chrome"":true,""on_mobile"":false,""language"":""en-US"",""screen_resolution"":[1440,900],""platform"":""MacIntel"",""timezone"":""Europe/Berlin""}","21","11321.160000001173","","","1559116342465","4","","","[]","Würzburg","false","false","12744.280000002589"
"","html-voicekey-response","66","463795","0.0-4.62-0.62","mqsqev36lbbbz8n","{""user_agent"":""Mozilla/5.0 (Macintosh; Intel Mac OS X 10_14_4) AppleWebKit/537.36 (KHTML, like Gecko) Chrome/74.0.3729.169 Safari/537.36"",""on_chrome"":true,""on_mobile"":false,""language"":""en-US"",""screen_resolution"":[1440,900],""platform"":""MacIntel"",""timezone"":""Europe/Berlin""}","21","2365.0450000002515","","","1559116359214","15","","Nürnberg","[]","Nürnberg","true","true","3457.3400000007823"
"","html-voicekey-response","67","469528","0.0-4.63-0.63","mqsqev36lbbbz8n","{""user_agent"":""Mozilla/5.0 (Macintosh; Intel Mac OS X 10_14_4) AppleWebKit/537.36 (KHTML, like Gecko) Chrome/74.0.3729.169 Safari/537.36"",""on_chrome"":true,""on_mobile"":false,""language"":""en-US"",""screen_resolution"":[1440,900],""platform"":""MacIntel"",""timezone"":""Europe/Berlin""}","21","3920.6099999990897","","","1559116363276","16","","Schwangau","[]","Schwangau","true","true","5129.229999998643"
"","html-voicekey-response","68","480773","0.0-4.64-0.64","mqsqev36lbbbz8n","{""user_agent"":""Mozilla/5.0 (Macintosh; Intel Mac OS X 10_14_4) AppleWebKit/537.36 (KHTML, like Gecko) Chrome/74.0.3729.169 Safari/537.36"",""on_chrome"":true,""on_mobile"":false,""language"":""en-US"",""screen_resolution"":[1440,900],""platform"":""MacIntel"",""timezone"":""Europe/Berlin""}","21","6382.000000003061","","","1559116369009","15","","","[]","Nürnberg","false","false","7241.45000000135"
"","html-voicekey-response","69","492100","0.0-4.65-0.65","mqsqev36lbbbz8n","{""user_agent"":""Mozilla/5.0 (Macintosh; Intel Mac OS X 10_14_4) AppleWebKit/537.36 (KHTML, like Gecko) Chrome/74.0.3729.169 Safari/537.36"",""on_chrome"":true,""on_mobile"":false,""language"":""en-US"",""screen_resolution"":[1440,900],""platform"":""MacIntel"",""timezone"":""Europe/Berlin""}","21","10168.855000001588","","","1559116380255","16","","Schwangau","[]","Schwangau","true","false","10719.515000000712"
"","html-voicekey-response","70","498323","0.0-4.66-0.66","mqsqev36lbbbz8n","{""user_agent"":""Mozilla/5.0 (Macintosh; Intel Mac OS X 10_14_4) AppleWebKit/537.36 (KHTML, like Gecko) Chrome/74.0.3729.169 Safari/537.36"",""on_chrome"":true,""on_mobile"":false,""language"":""en-US"",""screen_resolution"":[1440,900],""platform"":""MacIntel"",""timezone"":""Europe/Berlin""}","21","4993.95499999976","","","1559116391581","13","","Chemnitz","[]","Chemnitz","true","false","5619.460000001709"
"","html-voicekey-response","71","500973","0.0-4.67-0.67","mqsqev36lbbbz8n","{""user_agent"":""Mozilla/5.0 (Macintosh; Intel Mac OS X 10_14_4) AppleWebKit/537.36 (KHTML, like Gecko) Chrome/74.0.3729.169 Safari/537.36"",""on_chrome"":true,""on_mobile"":false,""language"":""en-US"",""screen_resolution"":[1440,900],""platform"":""MacIntel"",""timezone"":""Europe/Berlin""}","21","1470.5599999996252","","","1559116397804","14","","Potsdam","[]","Potsdam","true","false","2045.705000000482"
"","html-voicekey-response","72","512491","0.0-4.68-0.68","mqsqev36lbbbz8n","{""user_agent"":""Mozilla/5.0 (Macintosh; Intel Mac OS X 10_14_4) AppleWebKit/537.36 (KHTML, like Gecko) Chrome/74.0.3729.169 Safari/537.36"",""on_chrome"":true,""on_mobile"":false,""language"":""en-US"",""screen_resolution"":[1440,900],""platform"":""MacIntel"",""timezone"":""Europe/Berlin""}","21","6370.519999998423","","","1559116400454","10","","","[]","Heidelberg","false","false","7512.890000001818"
"","html-voicekey-response","73","516054","0.0-4.69-0.69","mqsqev36lbbbz8n","{""user_agent"":""Mozilla/5.0 (Macintosh; Intel Mac OS X 10_14_4) AppleWebKit/537.36 (KHTML, like Gecko) Chrome/74.0.3729.169 Safari/537.36"",""on_chrome"":true,""on_mobile"":false,""language"":""en-US"",""screen_resolution"":[1440,900],""platform"":""MacIntel"",""timezone"":""Europe/Berlin""}","21","2199.7250000002446","","","1559116411972","5","","Aachen","[]","Aachen","true","false","2958.989999999176"
"","html-voicekey-response","74","519221","0.0-4.70-0.70","mqsqev36lbbbz8n","{""user_agent"":""Mozilla/5.0 (Macintosh; Intel Mac OS X 10_14_4) AppleWebKit/537.36 (KHTML, like Gecko) Chrome/74.0.3729.169 Safari/537.36"",""on_chrome"":true,""on_mobile"":false,""language"":""en-US"",""screen_resolution"":[1440,900],""platform"":""MacIntel"",""timezone"":""Europe/Berlin""}","21","1652.2599999969593","","","1559116415534","3","","Ingolstadt","[]","Ingolstadt","true","false","2561.839999998512"
"","html-voicekey-response","75","524627","0.0-4.71-0.71","mqsqev36lbbbz8n","{""user_agent"":""Mozilla/5.0 (Macintosh; Intel Mac OS X 10_14_4) AppleWebKit/537.36 (KHTML, like Gecko) Chrome/74.0.3729.169 Safari/537.36"",""on_chrome"":true,""on_mobile"":false,""language"":""en-US"",""screen_resolution"":[1440,900],""platform"":""MacIntel"",""timezone"":""Europe/Berlin""}","21","4093.9650000016904","","","1559116418702","13","","Chemnitz","[]","Chemnitz","true","false","4802.505000003264"
"","html-voicekey-response","76","527760","0.0-4.72-0.72","mqsqev36lbbbz8n","{""user_agent"":""Mozilla/5.0 (Macintosh; Intel Mac OS X 10_14_4) AppleWebKit/537.36 (KHTML, like Gecko) Chrome/74.0.3729.169 Safari/537.36"",""on_chrome"":true,""on_mobile"":false,""language"":""en-US"",""screen_resolution"":[1440,900],""platform"":""MacIntel"",""timezone"":""Europe/Berlin""}","21","1952.8699999989244","","","1559116424108","1","","Magdeburg","[]","Magdeburg","true","false","2528.289999998291"
"","html-voicekey-response","77","534996","0.0-4.73-0.73","mqsqev36lbbbz8n","{""user_agent"":""Mozilla/5.0 (Macintosh; Intel Mac OS X 10_14_4) AppleWebKit/537.36 (KHTML, like Gecko) Chrome/74.0.3729.169 Safari/537.36"",""on_chrome"":true,""on_mobile"":false,""language"":""en-US"",""screen_resolution"":[1440,900],""platform"":""MacIntel"",""timezone"":""Europe/Berlin""}","21","5936.440000003064","","","1559116427242","10","","Heidelberg","[]","Heidelberg","true","false","6629.37000000244"
"","html-voicekey-response","78","546738","0.0-4.74-0.74","mqsqev36lbbbz8n","{""user_agent"":""Mozilla/5.0 (Macintosh; Intel Mac OS X 10_14_4) AppleWebKit/537.36 (KHTML, like Gecko) Chrome/74.0.3729.169 Safari/537.36"",""on_chrome"":true,""on_mobile"":false,""language"":""en-US"",""screen_resolution"":[1440,900],""platform"":""MacIntel"",""timezone"":""Europe/Berlin""}","21","6347.7800000017505","","","1559116434477","15","","","[]","Nürnberg","false","false","7738.884999998845"
"","html-voicekey-response","79","551248","0.0-4.75-0.75","mqsqev36lbbbz8n","{""user_agent"":""Mozilla/5.0 (Macintosh; Intel Mac OS X 10_14_4) AppleWebKit/537.36 (KHTML, like Gecko) Chrome/74.0.3729.169 Safari/537.36"",""on_chrome"":true,""on_mobile"":false,""language"":""en-US"",""screen_resolution"":[1440,900],""platform"":""MacIntel"",""timezone"":""Europe/Berlin""}","21","3254.1999999974855","","","1559116446219","11","","Alfeld","[]","Alfeld","true","false","3906.230000000447"
"","html-voicekey-response","80","554115","0.0-4.76-0.76","mqsqev36lbbbz8n","{""user_agent"":""Mozilla/5.0 (Macintosh; Intel Mac OS X 10_14_4) AppleWebKit/537.36 (KHTML, like Gecko) Chrome/74.0.3729.169 Safari/537.36"",""on_chrome"":true,""on_mobile"":false,""language"":""en-US"",""screen_resolution"":[1440,900],""platform"":""MacIntel"",""timezone"":""Europe/Berlin""}","21","1770.6900000029477","","","1559116450730","13","","Chemnitz","[]","Chemnitz","true","false","2262.17499999993"
"","html-voicekey-response","81","568567","0.0-4.77-0.77","mqsqev36lbbbz8n","{""user_agent"":""Mozilla/5.0 (Macintosh; Intel Mac OS X 10_14_4) AppleWebKit/537.36 (KHTML, like Gecko) Chrome/74.0.3729.169 Safari/537.36"",""on_chrome"":true,""on_mobile"":false,""language"":""en-US"",""screen_resolution"":[1440,900],""platform"":""MacIntel"",""timezone"":""Europe/Berlin""}","21","8936.649999997671","","","1559116453597","16","","","[]","Schwangau","false","false","10445.819999997271"
"","html-voicekey-response","82","571562","0.0-4.78-0.78","mqsqev36lbbbz8n","{""user_agent"":""Mozilla/5.0 (Macintosh; Intel Mac OS X 10_14_4) AppleWebKit/537.36 (KHTML, like Gecko) Chrome/74.0.3729.169 Safari/537.36"",""on_chrome"":true,""on_mobile"":false,""language"":""en-US"",""screen_resolution"":[1440,900],""platform"":""MacIntel"",""timezone"":""Europe/Berlin""}","21","1748.9799999983284","","","1559116468048","6","","Dresden","[]","Dresden","true","false","2391.104999998817"
"","html-voicekey-response","83","576848","0.0-4.79-0.79","mqsqev36lbbbz8n","{""user_agent"":""Mozilla/5.0 (Macintosh; Intel Mac OS X 10_14_4) AppleWebKit/537.36 (KHTML, like Gecko) Chrome/74.0.3729.169 Safari/537.36"",""on_chrome"":true,""on_mobile"":false,""language"":""en-US"",""screen_resolution"":[1440,900],""platform"":""MacIntel"",""timezone"":""Europe/Berlin""}","21","4203.220000001113","","","1559116471044","4","","Würzburg","[]","Würzburg","true","false","4679.299999999814"
"","html-voicekey-response","84","583171","0.0-4.80-0.80","mqsqev36lbbbz8n","{""user_agent"":""Mozilla/5.0 (Macintosh; Intel Mac OS X 10_14_4) AppleWebKit/537.36 (KHTML, like Gecko) Chrome/74.0.3729.169 Safari/537.36"",""on_chrome"":true,""on_mobile"":false,""language"":""en-US"",""screen_resolution"":[1440,900],""platform"":""MacIntel"",""timezone"":""Europe/Berlin""}","21","5190.579999996558","","","1559116476331","10","","Heidelberg","[]","Heidelberg","true","false","5716.300000000047"
"","html-voicekey-response","85","591855","0.0-4.81-0.81","mqsqev36lbbbz8n","{""user_agent"":""Mozilla/5.0 (Macintosh; Intel Mac OS X 10_14_4) AppleWebKit/537.36 (KHTML, like Gecko) Chrome/74.0.3729.169 Safari/537.36"",""on_chrome"":true,""on_mobile"":false,""language"":""en-US"",""screen_resolution"":[1440,900],""platform"":""MacIntel"",""timezone"":""Europe/Berlin""}","21","7602.919999999203","","","1559116482652","15","","Nürnberg","[]","Nürnberg","true","false","8078.914999998291"
"","html-voicekey-response","86","594783","0.0-4.82-0.82","mqsqev36lbbbz8n","{""user_agent"":""Mozilla/5.0 (Macintosh; Intel Mac OS X 10_14_4) AppleWebKit/537.36 (KHTML, like Gecko) Chrome/74.0.3729.169 Safari/537.36"",""on_chrome"":true,""on_mobile"":false,""language"":""en-US"",""screen_resolution"":[1440,900],""platform"":""MacIntel"",""timezone"":""Europe/Berlin""}","21","1729.5450000000187","","","1559116491338","5","","Aachen","[]","Aachen","true","false","2321.0199999994365"
"","html-voicekey-response","87","597665","0.0-4.83-0.83","mqsqev36lbbbz8n","{""user_agent"":""Mozilla/5.0 (Macintosh; Intel Mac OS X 10_14_4) AppleWebKit/537.36 (KHTML, like Gecko) Chrome/74.0.3729.169 Safari/537.36"",""on_chrome"":true,""on_mobile"":false,""language"":""en-US"",""screen_resolution"":[1440,900],""platform"":""MacIntel"",""timezone"":""Europe/Berlin""}","21","1636.7100000005216","","","1559116494264","13","","Chemnitz","[]","Chemnitz","true","false","2278.295000000042"
"","html-voicekey-response","88","601982","0.0-4.84-0.84","mqsqev36lbbbz8n","{""user_agent"":""Mozilla/5.0 (Macintosh; Intel Mac OS X 10_14_4) AppleWebKit/537.36 (KHTML, like Gecko) Chrome/74.0.3729.169 Safari/537.36"",""on_chrome"":true,""on_mobile"":false,""language"":""en-US"",""screen_resolution"":[1440,900],""platform"":""MacIntel"",""timezone"":""Europe/Berlin""}","21","2819.125000003353","","","1559116497148","7","","Erfurt","[]","Erfurt","true","false","3710.750000001979"
"","html-voicekey-response","89","608945","0.0-4.85-0.85","mqsqev36lbbbz8n","{""user_agent"":""Mozilla/5.0 (Macintosh; Intel Mac OS X 10_14_4) AppleWebKit/537.36 (KHTML, like Gecko) Chrome/74.0.3729.169 Safari/537.36"",""on_chrome"":true,""on_mobile"":false,""language"":""en-US"",""screen_resolution"":[1440,900],""platform"":""MacIntel"",""timezone"":""Europe/Berlin""}","21","5781.840000001224","","","1559116501464","16","","Schwangau","[]","Schwangau","true","false","6357.589999999618"
"","html-voicekey-response","90","618577","0.0-4.86-0.86","mqsqev36lbbbz8n","{""user_agent"":""Mozilla/5.0 (Macintosh; Intel Mac OS X 10_14_4) AppleWebKit/537.36 (KHTML, like Gecko) Chrome/74.0.3729.169 Safari/537.36"",""on_chrome"":true,""on_mobile"":false,""language"":""en-US"",""screen_resolution"":[1440,900],""platform"":""MacIntel"",""timezone"":""Europe/Berlin""}","21","3234.680000003055","","","1559116508427","10","","","[]","Heidelberg","false","false","5627.89000000339"
"","html-voicekey-response","91","625319","0.0-4.87-0.87","mqsqev36lbbbz8n","{""user_agent"":""Mozilla/5.0 (Macintosh; Intel Mac OS X 10_14_4) AppleWebKit/537.36 (KHTML, like Gecko) Chrome/74.0.3729.169 Safari/537.36"",""on_chrome"":true,""on_mobile"":false,""language"":""en-US"",""screen_resolution"":[1440,900],""platform"":""MacIntel"",""timezone"":""Europe/Berlin""}","21","5475.3199999994595","","","1559116518060","15","","Nürnberg","[]","Nürnberg","true","false","6134.2900000019"
"","html-voicekey-response","92","630025","0.0-4.88-0.88","mqsqev36lbbbz8n","{""user_agent"":""Mozilla/5.0 (Macintosh; Intel Mac OS X 10_14_4) AppleWebKit/537.36 (KHTML, like Gecko) Chrome/74.0.3729.169 Safari/537.36"",""on_chrome"":true,""on_mobile"":false,""language"":""en-US"",""screen_resolution"":[1440,900],""platform"":""MacIntel"",""timezone"":""Europe/Berlin""}","21","3375.480000000424","","","1559116524801","11","","Alfeld","[]","Alfeld","true","false","4100.7900000003865"
"","html-voicekey-response","93","633008","0.0-4.89-0.89","mqsqev36lbbbz8n","{""user_agent"":""Mozilla/5.0 (Macintosh; Intel Mac OS X 10_14_4) AppleWebKit/537.36 (KHTML, like Gecko) Chrome/74.0.3729.169 Safari/537.36"",""on_chrome"":true,""on_mobile"":false,""language"":""en-US"",""screen_resolution"":[1440,900],""platform"":""MacIntel"",""timezone"":""Europe/Berlin""}","21","1668.2849999977975","","","1559116529507","8","","Gotha","[]","Gotha","true","false","2378.034999997937"
"","html-voicekey-response","94","645758","0.0-4.90-0.90","mqsqev36lbbbz8n","{""user_agent"":""Mozilla/5.0 (Macintosh; Intel Mac OS X 10_14_4) AppleWebKit/537.36 (KHTML, like Gecko) Chrome/74.0.3729.169 Safari/537.36"",""on_chrome"":true,""on_mobile"":false,""language"":""en-US"",""screen_resolution"":[1440,900],""platform"":""MacIntel"",""timezone"":""Europe/Berlin""}","21","7153.050000002468","","","1559116532490","16","","","[]","Schwangau","false","false","8745.290000002482"
"","html-voicekey-response","95","654021","0.0-4.91-0.91","mqsqev36lbbbz8n","{""user_agent"":""Mozilla/5.0 (Macintosh; Intel Mac OS X 10_14_4) AppleWebKit/537.36 (KHTML, like Gecko) Chrome/74.0.3729.169 Safari/537.36"",""on_chrome"":true,""on_mobile"":false,""language"":""en-US"",""screen_resolution"":[1440,900],""platform"":""MacIntel"",""timezone"":""Europe/Berlin""}","21","2914.389999999758","","","1559116545241","10","","","[]","Heidelberg","false","false","4257.144999999553"
"","html-voicekey-response","96","658200","0.0-4.92-0.92","mqsqev36lbbbz8n","{""user_agent"":""Mozilla/5.0 (Macintosh; Intel Mac OS X 10_14_4) AppleWebKit/537.36 (KHTML, like Gecko) Chrome/74.0.3729.169 Safari/537.36"",""on_chrome"":true,""on_mobile"":false,""language"":""en-US"",""screen_resolution"":[1440,900],""platform"":""MacIntel"",""timezone"":""Europe/Berlin""}","21","3084.869999996829","","","1559116553503","15","","Nürnberg","[]","Nürnberg","true","false","3573.054999997141"
"","html-voicekey-response","97","665483","0.0-4.93-0.93","mqsqev36lbbbz8n","{""user_agent"":""Mozilla/5.0 (Macintosh; Intel Mac OS X 10_14_4) AppleWebKit/537.36 (KHTML, like Gecko) Chrome/74.0.3729.169 Safari/537.36"",""on_chrome"":true,""on_mobile"":false,""language"":""en-US"",""screen_resolution"":[1440,900],""platform"":""MacIntel"",""timezone"":""Europe/Berlin""}","21","3418.489999998105","","","1559116557682","10","","Heidelberg","[]","Heidelberg","true","false","6677.964999999036"
"","html-voicekey-response","98","668406","0.0-4.94-0.94","mqsqev36lbbbz8n","{""user_agent"":""Mozilla/5.0 (Macintosh; Intel Mac OS X 10_14_4) AppleWebKit/537.36 (KHTML, like Gecko) Chrome/74.0.3729.169 Safari/537.36"",""on_chrome"":true,""on_mobile"":false,""language"":""en-US"",""screen_resolution"":[1440,900],""platform"":""MacIntel"",""timezone"":""Europe/Berlin""}","21","1609.4600000012201","","","1559116564965","13","","Chemnitz","[]","Chemnitz","true","false","2317.9850000014994"
"","html-voicekey-response","99","674122","0.0-4.95-0.95","mqsqev36lbbbz8n","{""user_agent"":""Mozilla/5.0 (Macintosh; Intel Mac OS X 10_14_4) AppleWebKit/537.36 (KHTML, like Gecko) Chrome/74.0.3729.169 Safari/537.36"",""on_chrome"":true,""on_mobile"":false,""language"":""en-US"",""screen_resolution"":[1440,900],""platform"":""MacIntel"",""timezone"":""Europe/Berlin""}","21","4418.185000000265","","","1559116567889","16","","Schwangau","[]","Schwangau","true","false","5110.420000000857"
"","html-voicekey-response","100","683190","0.0-4.96-0.96","mqsqev36lbbbz8n","{""user_agent"":""Mozilla/5.0 (Macintosh; Intel Mac OS X 10_14_4) AppleWebKit/537.36 (KHTML, like Gecko) Chrome/74.0.3729.169 Safari/537.36"",""on_chrome"":true,""on_mobile"":false,""language"":""en-US"",""screen_resolution"":[1440,900],""platform"":""MacIntel"",""timezone"":""Europe/Berlin""}","21","4402.629999998468","","","1559116573605","10","","","[]","Heidelberg","false","false","5061.51999999932"
"","html-voicekey-response","101","686051","0.0-4.97-0.97","mqsqev36lbbbz8n","{""user_agent"":""Mozilla/5.0 (Macintosh; Intel Mac OS X 10_14_4) AppleWebKit/537.36 (KHTML, like Gecko) Chrome/74.0.3729.169 Safari/537.36"",""on_chrome"":true,""on_mobile"":false,""language"":""en-US"",""screen_resolution"":[1440,900],""platform"":""MacIntel"",""timezone"":""Europe/Berlin""}","21","100","","","1559116582673","4","","Würzburg","[]","Würzburg","true","false","2254.315000001923"
"","html-voicekey-response","102","689701","0.0-4.98-0.98","mqsqev36lbbbz8n","{""user_agent"":""Mozilla/5.0 (Macintosh; Intel Mac OS X 10_14_4) AppleWebKit/537.36 (KHTML, like Gecko) Chrome/74.0.3729.169 Safari/537.36"",""on_chrome"":true,""on_mobile"":false,""language"":""en-US"",""screen_resolution"":[1440,900],""platform"":""MacIntel"",""timezone"":""Europe/Berlin""}","21","2585.1449999989477","","","1559116585534","15","","Nürnberg","[]","Nürnberg","true","false","3043.1250000001164"
"","html-voicekey-response","103","697309","0.0-4.99-0.99","mqsqev36lbbbz8n","{""user_agent"":""Mozilla/5.0 (Macintosh; Intel Mac OS X 10_14_4) AppleWebKit/537.36 (KHTML, like Gecko) Chrome/74.0.3729.169 Safari/537.36"",""on_chrome"":true,""on_mobile"":false,""language"":""en-US"",""screen_resolution"":[1440,900],""platform"":""MacIntel"",""timezone"":""Europe/Berlin""}","21","6444.51000000278","","","1559116589182","10","","Heidelberg","[]","Heidelberg","true","false","7003.785000000731"
"","html-voicekey-response","104","707121","0.0-4.100-0.100","mqsqev36lbbbz8n","{""user_agent"":""Mozilla/5.0 (Macintosh; Intel Mac OS X 10_14_4) AppleWebKit/537.36 (KHTML, like Gecko) Chrome/74.0.3729.169 Safari/537.36"",""on_chrome"":true,""on_mobile"":false,""language"":""en-US"",""screen_resolution"":[1440,900],""platform"":""MacIntel"",""timezone"":""Europe/Berlin""}","21","8634.920000002114","","","1559116596792","3","","Ingolstadt","[]","Ingolstadt","true","false","9206.41500000062"
"","html-voicekey-response","105","722723","0.0-4.101-0.101","mqsqev36lbbbz8n","{""user_agent"":""Mozilla/5.0 (Macintosh; Intel Mac OS X 10_14_4) AppleWebKit/537.36 (KHTML, like Gecko) Chrome/74.0.3729.169 Safari/537.36"",""on_chrome"":true,""on_mobile"":false,""language"":""en-US"",""screen_resolution"":[1440,900],""platform"":""MacIntel"",""timezone"":""Europe/Berlin""}","21","11049.940000002482","","","1559116606605","10","","","[]","Heidelberg","false","false","11593.220000002533"
"","html-voicekey-response","106","726215","0.0-4.102-0.102","mqsqev36lbbbz8n","{""user_agent"":""Mozilla/5.0 (Macintosh; Intel Mac OS X 10_14_4) AppleWebKit/537.36 (KHTML, like Gecko) Chrome/74.0.3729.169 Safari/537.36"",""on_chrome"":true,""on_mobile"":false,""language"":""en-US"",""screen_resolution"":[1440,900],""platform"":""MacIntel"",""timezone"":""Europe/Berlin""}","21","1993.6049999977463","","","1559116622206","16","","Schwangau","[]","Schwangau","true","false","2886.404999997467"
"","html-voicekey-response","107","729398","0.0-4.103-0.103","mqsqev36lbbbz8n","{""user_agent"":""Mozilla/5.0 (Macintosh; Intel Mac OS X 10_14_4) AppleWebKit/537.36 (KHTML, like Gecko) Chrome/74.0.3729.169 Safari/537.36"",""on_chrome"":true,""on_mobile"":false,""language"":""en-US"",""screen_resolution"":[1440,900],""platform"":""MacIntel"",""timezone"":""Europe/Berlin""}","21","2101.234999999963","","","1559116625698","10","","Heidelberg","[]","Heidelberg","true","false","2576.714999999269"
"","html-voicekey-response","108","733289","0.0-4.104-0.104","mqsqev36lbbbz8n","{""user_agent"":""Mozilla/5.0 (Macintosh; Intel Mac OS X 10_14_4) AppleWebKit/537.36 (KHTML, like Gecko) Chrome/74.0.3729.169 Safari/537.36"",""on_chrome"":true,""on_mobile"":false,""language"":""en-US"",""screen_resolution"":[1440,900],""platform"":""MacIntel"",""timezone"":""Europe/Berlin""}","21","2191.4200000008336","","","1559116628881","9","","München","[]","München","true","false","3284.654999999446"
"","html-voicekey-response","109","740775","0.0-4.105-0.105","mqsqev36lbbbz8n","{""user_agent"":""Mozilla/5.0 (Macintosh; Intel Mac OS X 10_14_4) AppleWebKit/537.36 (KHTML, like Gecko) Chrome/74.0.3729.169 Safari/537.36"",""on_chrome"":true,""on_mobile"":false,""language"":""en-US"",""screen_resolution"":[1440,900],""platform"":""MacIntel"",""timezone"":""Europe/Berlin""}","21","6234.435000000149","","","1559116632771","10","","Heidelberg","[]","Heidelberg","true","false","6876.975000002771"
"","html-voicekey-response","110","744864","0.0-4.106-0.106","mqsqev36lbbbz8n","{""user_agent"":""Mozilla/5.0 (Macintosh; Intel Mac OS X 10_14_4) AppleWebKit/537.36 (KHTML, like Gecko) Chrome/74.0.3729.169 Safari/537.36"",""on_chrome"":true,""on_mobile"":false,""language"":""en-US"",""screen_resolution"":[1440,900],""platform"":""MacIntel"",""timezone"":""Europe/Berlin""}","21","2956.7400000031107","","","1559116640258","15","","Nürnberg","[]","Nürnberg","true","false","3482.3350000006612"
"","html-voicekey-response","111","747963","0.0-4.107-0.107","mqsqev36lbbbz8n","{""user_agent"":""Mozilla/5.0 (Macintosh; Intel Mac OS X 10_14_4) AppleWebKit/537.36 (KHTML, like Gecko) Chrome/74.0.3729.169 Safari/537.36"",""on_chrome"":true,""on_mobile"":false,""language"":""en-US"",""screen_resolution"":[1440,900],""platform"":""MacIntel"",""timezone"":""Europe/Berlin""}","21","1684.1350000011503","","","1559116644347","10","","Heidelberg","[]","Heidelberg","true","false","2493.6149999994086"
"","html-voicekey-response","112","751715","0.0-4.108-0.108","mqsqev36lbbbz8n","{""user_agent"":""Mozilla/5.0 (Macintosh; Intel Mac OS X 10_14_4) AppleWebKit/537.36 (KHTML, like Gecko) Chrome/74.0.3729.169 Safari/537.36"",""on_chrome"":true,""on_mobile"":false,""language"":""en-US"",""screen_resolution"":[1440,900],""platform"":""MacIntel"",""timezone"":""Europe/Berlin""}","21","2416.9199999976904","","","1559116647447","11","","Alfeld","[]","Alfeld","true","false","3142.519999997574"
"","html-voicekey-response","113","754654","0.0-4.109-0.109","mqsqev36lbbbz8n","{""user_agent"":""Mozilla/5.0 (Macintosh; Intel Mac OS X 10_14_4) AppleWebKit/537.36 (KHTML, like Gecko) Chrome/74.0.3729.169 Safari/537.36"",""on_chrome"":true,""on_mobile"":false,""language"":""en-US"",""screen_resolution"":[1440,900],""platform"":""MacIntel"",""timezone"":""Europe/Berlin""}","21","1589.8150000009687","","","1559116651199","10","","Heidelberg","[]","Heidelberg","true","false","2332.679999999469"
"","html-voicekey-response","114","757372","0.0-4.110-0.110","mqsqev36lbbbz8n","{""user_agent"":""Mozilla/5.0 (Macintosh; Intel Mac OS X 10_14_4) AppleWebKit/537.36 (KHTML, like Gecko) Chrome/74.0.3729.169 Safari/537.36"",""on_chrome"":true,""on_mobile"":false,""language"":""en-US"",""screen_resolution"":[1440,900],""platform"":""MacIntel"",""timezone"":""Europe/Berlin""}","21","1618.4799999990269","","","1559116654138","12","","Dessau","[]","Dessau","true","false","2110.9899999974295"
"","html-voicekey-response","115","760054","0.0-4.111-0.111","mqsqev36lbbbz8n","{""user_agent"":""Mozilla/5.0 (Macintosh; Intel Mac OS X 10_14_4) AppleWebKit/537.36 (KHTML, like Gecko) Chrome/74.0.3729.169 Safari/537.36"",""on_chrome"":true,""on_mobile"":false,""language"":""en-US"",""screen_resolution"":[1440,900],""platform"":""MacIntel"",""timezone"":""Europe/Berlin""}","21","1566.2600000012667","","","1559116656856","5","","Aachen","[]","Aachen","true","false","2074.880000000121"
"","html-voicekey-response","116","763405","0.0-4.112-0.112","mqsqev36lbbbz8n","{""user_agent"":""Mozilla/5.0 (Macintosh; Intel Mac OS X 10_14_4) AppleWebKit/537.36 (KHTML, like Gecko) Chrome/74.0.3729.169 Safari/537.36"",""on_chrome"":true,""on_mobile"":false,""language"":""en-US"",""screen_resolution"":[1440,900],""platform"":""MacIntel"",""timezone"":""Europe/Berlin""}","21","2248.7850000014064","","","1559116659539","17","","Leipzig","[]","Leipzig","true","true","2741.945000001462"
"","html-voicekey-response","117","766749","0.0-4.113-0.113","mqsqev36lbbbz8n","{""user_agent"":""Mozilla/5.0 (Macintosh; Intel Mac OS X 10_14_4) AppleWebKit/537.36 (KHTML, like Gecko) Chrome/74.0.3729.169 Safari/537.36"",""on_chrome"":true,""on_mobile"":false,""language"":""en-US"",""screen_resolution"":[1440,900],""platform"":""MacIntel"",""timezone"":""Europe/Berlin""}","21","2111.9149999993156","","","1559116662889","16","","Schwangau","[]","Schwangau","true","false","2737.339999999618"
"","html-voicekey-response","118","769399","0.0-4.114-0.114","mqsqev36lbbbz8n","{""user_agent"":""Mozilla/5.0 (Macintosh; Intel Mac OS X 10_14_4) AppleWebKit/537.36 (KHTML, like Gecko) Chrome/74.0.3729.169 Safari/537.36"",""on_chrome"":true,""on_mobile"":false,""language"":""en-US"",""screen_resolution"":[1440,900],""platform"":""MacIntel"",""timezone"":""Europe/Berlin""}","21","1367.7450000012527","","","1559116666234","17","","Leipzig","[]","Leipzig","true","false","2042.5299999987474"
"","html-voicekey-response","119","772282","0.0-4.115-0.115","mqsqev36lbbbz8n","{""user_agent"":""Mozilla/5.0 (Macintosh; Intel Mac OS X 10_14_4) AppleWebKit/537.36 (KHTML, like Gecko) Chrome/74.0.3729.169 Safari/537.36"",""on_chrome"":true,""on_mobile"":false,""language"":""en-US"",""screen_resolution"":[1440,900],""platform"":""MacIntel"",""timezone"":""Europe/Berlin""}","21","1633.8450000020443","","","1559116668884","15","","Nürnberg","[]","Nürnberg","true","false","2275.4449999993667"
"","html-voicekey-response","120","775368","0.0-4.116-0.116","mqsqev36lbbbz8n","{""user_agent"":""Mozilla/5.0 (Macintosh; Intel Mac OS X 10_14_4) AppleWebKit/537.36 (KHTML, like Gecko) Chrome/74.0.3729.169 Safari/537.36"",""on_chrome"":true,""on_mobile"":false,""language"":""en-US"",""screen_resolution"":[1440,900],""platform"":""MacIntel"",""timezone"":""Europe/Berlin""}","21","1768.6650000012946","","","1559116671766","10","","Heidelberg","[]","Heidelberg","true","false","2477.244999998249"
"","html-voicekey-response","121","780524","0.0-4.117-0.117","mqsqev36lbbbz8n","{""user_agent"":""Mozilla/5.0 (Macintosh; Intel Mac OS X 10_14_4) AppleWebKit/537.36 (KHTML, like Gecko) Chrome/74.0.3729.169 Safari/537.36"",""on_chrome"":true,""on_mobile"":false,""language"":""en-US"",""screen_resolution"":[1440,900],""platform"":""MacIntel"",""timezone"":""Europe/Berlin""}","21","3755.9100000014064","","","1559116674853","18","","Forchheim","[]","Forchheim","true","true","4548.094999998226"
"","html-voicekey-response","122","786425","0.0-4.118-0.118","mqsqev36lbbbz8n","{""user_agent"":""Mozilla/5.0 (Macintosh; Intel Mac OS X 10_14_4) AppleWebKit/537.36 (KHTML, like Gecko) Chrome/74.0.3729.169 Safari/537.36"",""on_chrome"":true,""on_mobile"":false,""language"":""en-US"",""screen_resolution"":[1440,900],""platform"":""MacIntel"",""timezone"":""Europe/Berlin""}","21","4700.679999999795","","","1559116680008","19","","Frankfurt","[]","Frankfurt","true","true","5292.2899999975925"
"","html-voicekey-response","123","796733","0.0-4.119-0.119","mqsqev36lbbbz8n","{""user_agent"":""Mozilla/5.0 (Macintosh; Intel Mac OS X 10_14_4) AppleWebKit/537.36 (KHTML, like Gecko) Chrome/74.0.3729.169 Safari/537.36"",""on_chrome"":true,""on_mobile"":false,""language"":""en-US"",""screen_resolution"":[1440,900],""platform"":""MacIntel"",""timezone"":""Europe/Berlin""}","21","4823.1599999979135","","","1559116685910","18","","","[]","Forchheim","false","false","6298.969999999856"
"","html-voicekey-response","124","799779","0.0-4.120-0.120","mqsqev36lbbbz8n","{""user_agent"":""Mozilla/5.0 (Macintosh; Intel Mac OS X 10_14_4) AppleWebKit/537.36 (KHTML, like Gecko) Chrome/74.0.3729.169 Safari/537.36"",""on_chrome"":true,""on_mobile"":false,""language"":""en-US"",""screen_resolution"":[1440,900],""platform"":""MacIntel"",""timezone"":""Europe/Berlin""}","21","1799.629999999283","","","1559116696217","19","","Frankfurt","[]","Frankfurt","true","false","2438.684999997262"
"","html-voicekey-response","125","802880","0.0-4.121-0.121","mqsqev36lbbbz8n","{""user_agent"":""Mozilla/5.0 (Macintosh; Intel Mac OS X 10_14_4) AppleWebKit/537.36 (KHTML, like Gecko) Chrome/74.0.3729.169 Safari/537.36"",""on_chrome"":true,""on_mobile"":false,""language"":""en-US"",""screen_resolution"":[1440,900],""platform"":""MacIntel"",""timezone"":""Europe/Berlin""}","21","1783.5799999973738","","","1559116699263","3","","Ingolstadt","[]","Ingolstadt","true","false","2493.3249999994878"
"","html-voicekey-response","126","806245","0.0-4.122-0.122","mqsqev36lbbbz8n","{""user_agent"":""Mozilla/5.0 (Macintosh; Intel Mac OS X 10_14_4) AppleWebKit/537.36 (KHTML, like Gecko) Chrome/74.0.3729.169 Safari/537.36"",""on_chrome"":true,""on_mobile"":false,""language"":""en-US"",""screen_resolution"":[1440,900],""platform"":""MacIntel"",""timezone"":""Europe/Berlin""}","21","2250.0100000014995","","","1559116702364","20","","Hamburg ","[]","Hamburg ","true","true","2758.5849999996135"
"","html-voicekey-response","127","809664","0.0-4.123-0.123","mqsqev36lbbbz8n","{""user_agent"":""Mozilla/5.0 (Macintosh; Intel Mac OS X 10_14_4) AppleWebKit/537.36 (KHTML, like Gecko) Chrome/74.0.3729.169 Safari/537.36"",""on_chrome"":true,""on_mobile"":false,""language"":""en-US"",""screen_resolution"":[1440,900],""platform"":""MacIntel"",""timezone"":""Europe/Berlin""}","21","1951.025000000233","","","1559116705729","21","","Konstanz","[]","Konstanz","true","true","2810.3499999998603"
"","html-voicekey-response","128","812537","0.0-4.124-0.124","mqsqev36lbbbz8n","{""user_agent"":""Mozilla/5.0 (Macintosh; Intel Mac OS X 10_14_4) AppleWebKit/537.36 (KHTML, like Gecko) Chrome/74.0.3729.169 Safari/537.36"",""on_chrome"":true,""on_mobile"":false,""language"":""en-US"",""screen_resolution"":[1440,900],""platform"":""MacIntel"",""timezone"":""Europe/Berlin""}","21","1740.1950000001584","","","1559116709148","20","","Hamburg ","[]","Hamburg ","true","false","2265.625"
"","html-voicekey-response","129","814704","0.0-4.125-0.125","mqsqev36lbbbz8n","{""user_agent"":""Mozilla/5.0 (Macintosh; Intel Mac OS X 10_14_4) AppleWebKit/537.36 (KHTML, like Gecko) Chrome/74.0.3729.169 Safari/537.36"",""on_chrome"":true,""on_mobile"":false,""language"":""en-US"",""screen_resolution"":[1440,900],""platform"":""MacIntel"",""timezone"":""Europe/Berlin""}","21","866.2349999993806","","","1559116712023","21","","Konstanz","[]","Konstanz","true","false","1558.5399999981746"
"","html-voicekey-response","130","817220","0.0-4.126-0.126","mqsqev36lbbbz8n","{""user_agent"":""Mozilla/5.0 (Macintosh; Intel Mac OS X 10_14_4) AppleWebKit/537.36 (KHTML, like Gecko) Chrome/74.0.3729.169 Safari/537.36"",""on_chrome"":true,""on_mobile"":false,""language"":""en-US"",""screen_resolution"":[1440,900],""platform"":""MacIntel"",""timezone"":""Europe/Berlin""}","21","1448.72500000007","","","1559116714190","15","","Nürnberg","[]","Nürnberg","true","false","1907.4449999971548"
"","html-voicekey-response","131","819887","0.0-4.127-0.127","mqsqev36lbbbz8n","{""user_agent"":""Mozilla/5.0 (Macintosh; Intel Mac OS X 10_14_4) AppleWebKit/537.36 (KHTML, like Gecko) Chrome/74.0.3729.169 Safari/537.36"",""on_chrome"":true,""on_mobile"":false,""language"":""en-US"",""screen_resolution"":[1440,900],""platform"":""MacIntel"",""timezone"":""Europe/Berlin""}","21","1583.5549999990967","","","1559116716705","17","","Leipzig","[]","Leipzig","true","false","2058.724999998929"
"","html-voicekey-response","132","822343","0.0-4.128-0.128","mqsqev36lbbbz8n","{""user_agent"":""Mozilla/5.0 (Macintosh; Intel Mac OS X 10_14_4) AppleWebKit/537.36 (KHTML, like Gecko) Chrome/74.0.3729.169 Safari/537.36"",""on_chrome"":true,""on_mobile"":false,""language"":""en-US"",""screen_resolution"":[1440,900],""platform"":""MacIntel"",""timezone"":""Europe/Berlin""}","21","1405.1799999995624","","","1559116719372","13","","Chemnitz","[]","Chemnitz","true","false","1847.490000000107"
"","html-voicekey-response","133","828026","0.0-4.129-0.129","mqsqev36lbbbz8n","{""user_agent"":""Mozilla/5.0 (Macintosh; Intel Mac OS X 10_14_4) AppleWebKit/537.36 (KHTML, like Gecko) Chrome/74.0.3729.169 Safari/537.36"",""on_chrome"":true,""on_mobile"":false,""language"":""en-US"",""screen_resolution"":[1440,900],""platform"":""MacIntel"",""timezone"":""Europe/Berlin""}","21","4582.434999998286","","","1559116721828","4","","Würzburg","[]","Würzburg","true","false","5074.974999999511"
"","html-voicekey-response","134","830927","0.0-4.130-0.130","mqsqev36lbbbz8n","{""user_agent"":""Mozilla/5.0 (Macintosh; Intel Mac OS X 10_14_4) AppleWebKit/537.36 (KHTML, like Gecko) Chrome/74.0.3729.169 Safari/537.36"",""on_chrome"":true,""on_mobile"":false,""language"":""en-US"",""screen_resolution"":[1440,900],""platform"":""MacIntel"",""timezone"":""Europe/Berlin""}","21","1632.7599999984727","","","1559116727511","10","","Heidelberg","[]","Heidelberg","true","false","2291.414999999688"
"","html-voicekey-response","135","834084","0.0-4.131-0.131","mqsqev36lbbbz8n","{""user_agent"":""Mozilla/5.0 (Macintosh; Intel Mac OS X 10_14_4) AppleWebKit/537.36 (KHTML, like Gecko) Chrome/74.0.3729.169 Safari/537.36"",""on_chrome"":true,""on_mobile"":false,""language"":""en-US"",""screen_resolution"":[1440,900],""platform"":""MacIntel"",""timezone"":""Europe/Berlin""}","21","1872.6399999995251","","","1559116730412","16","","Schwangau","[]","Schwangau","true","false","2548.7849999991013"
"","html-voicekey-response","136","838949","0.0-4.132-0.132","mqsqev36lbbbz8n","{""user_agent"":""Mozilla/5.0 (Macintosh; Intel Mac OS X 10_14_4) AppleWebKit/537.36 (KHTML, like Gecko) Chrome/74.0.3729.169 Safari/537.36"",""on_chrome"":true,""on_mobile"":false,""language"":""en-US"",""screen_resolution"":[1440,900],""platform"":""MacIntel"",""timezone"":""Europe/Berlin""}","21","3598.794999999786","","","1559116733569","22","","Bamberg","[]","Bamberg","true","true","4257.714999999735"
