"value","trial_type","trial_index","time_elapsed","internal_node_id","subject","browser_info","participant_number","rt","responses","view_history","presentation_start_time","id","text","response","keypresses","answer","correct","study","experimenter_rt"
"","call-function","0","3","0.0-0.0","a8oa198p59h6p7d","{""user_agent"":""Mozilla/5.0 (Macintosh; Intel Mac OS X 10_14_4) AppleWebKit/537.36 (KHTML, like Gecko) Chrome/74.0.3729.169 Safari/537.36"",""on_chrome"":true,""on_mobile"":false,""language"":""en-US"",""screen_resolution"":[1440,900],""platform"":""MacIntel"",""timezone"":""Europe/Berlin""}","22","","","","","","","","","","","",""
"","survey-text","1","7760","0.0-1.0","a8oa198p59h6p7d","{""user_agent"":""Mozilla/5.0 (Macintosh; Intel Mac OS X 10_14_4) AppleWebKit/537.36 (KHTML, like Gecko) Chrome/74.0.3729.169 Safari/537.36"",""on_chrome"":true,""on_mobile"":false,""language"":""en-US"",""screen_resolution"":[1440,900],""platform"":""MacIntel"",""timezone"":""Europe/Berlin""}","22","7755","{""Q0"":""22""}","","","","","","","","","",""
"","instructions","2","161883","0.0-2.0","a8oa198p59h6p7d","{""user_agent"":""Mozilla/5.0 (Macintosh; Intel Mac OS X 10_14_4) AppleWebKit/537.36 (KHTML, like Gecko) Chrome/74.0.3729.169 Safari/537.36"",""on_chrome"":true,""on_mobile"":false,""language"":""en-US"",""screen_resolution"":[1440,900],""platform"":""MacIntel"",""timezone"":""Europe/Berlin""}","22","154121","","[{""page_index"":0,""viewing_time"":154121}]","","","","","","","","",""
"","call-function","3","161883","0.0-3.0","a8oa198p59h6p7d","{""user_agent"":""Mozilla/5.0 (Macintosh; Intel Mac OS X 10_14_4) AppleWebKit/537.36 (KHTML, like Gecko) Chrome/74.0.3729.169 Safari/537.36"",""on_chrome"":true,""on_mobile"":false,""language"":""en-US"",""screen_resolution"":[1440,900],""platform"":""MacIntel"",""timezone"":""Europe/Berlin""}","22","","","","","","","","","","","",""
"","html-voicekey-response","4","165377","0.0-4.0-0.0","a8oa198p59h6p7d","{""user_agent"":""Mozilla/5.0 (Macintosh; Intel Mac OS X 10_14_4) AppleWebKit/537.36 (KHTML, like Gecko) Chrome/74.0.3729.169 Safari/537.36"",""on_chrome"":true,""on_mobile"":false,""language"":""en-US"",""screen_resolution"":[1440,900],""platform"":""MacIntel"",""timezone"":""Europe/Berlin""}","22","100","","","1559121450694","1","","Magdeburg","[]","Magdeburg","true","true","2888.0299999982526"
"","html-voicekey-response","5","170497","0.0-4.1-0.1","a8oa198p59h6p7d","{""user_agent"":""Mozilla/5.0 (Macintosh; Intel Mac OS X 10_14_4) AppleWebKit/537.36 (KHTML, like Gecko) Chrome/74.0.3729.169 Safari/537.36"",""on_chrome"":true,""on_mobile"":false,""language"":""en-US"",""screen_resolution"":[1440,900],""platform"":""MacIntel"",""timezone"":""Europe/Berlin""}","22","3872.075000000978","","","1559121454191","1","","Magdeburg","[]","Magdeburg","true","false","4514.3000000025495"
"","html-voicekey-response","6","174279","0.0-4.2-0.2","a8oa198p59h6p7d","{""user_agent"":""Mozilla/5.0 (Macintosh; Intel Mac OS X 10_14_4) AppleWebKit/537.36 (KHTML, like Gecko) Chrome/74.0.3729.169 Safari/537.36"",""on_chrome"":true,""on_mobile"":false,""language"":""en-US"",""screen_resolution"":[1440,900],""platform"":""MacIntel"",""timezone"":""Europe/Berlin""}","22","2287.270000002382","","","1559121459308","2","","Berlin","[]","Berlin","true","true","3179.4750000008207"
"","html-voicekey-response","7","176571","0.0-4.3-0.3","a8oa198p59h6p7d","{""user_agent"":""Mozilla/5.0 (Macintosh; Intel Mac OS X 10_14_4) AppleWebKit/537.36 (KHTML, like Gecko) Chrome/74.0.3729.169 Safari/537.36"",""on_chrome"":true,""on_mobile"":false,""language"":""en-US"",""screen_resolution"":[1440,900],""platform"":""MacIntel"",""timezone"":""Europe/Berlin""}","22","1013.0250000018626","","","1559121463091","2","","Berlin","[]","Berlin","true","false","1689.024999999674"
"","html-voicekey-response","8","180037","0.0-4.4-0.4","a8oa198p59h6p7d","{""user_agent"":""Mozilla/5.0 (Macintosh; Intel Mac OS X 10_14_4) AppleWebKit/537.36 (KHTML, like Gecko) Chrome/74.0.3729.169 Safari/537.36"",""on_chrome"":true,""on_mobile"":false,""language"":""en-US"",""screen_resolution"":[1440,900],""platform"":""MacIntel"",""timezone"":""Europe/Berlin""}","22","1904.8299999975193","","","1559121465382","3","","Ingolstadt","[]","Ingolstadt","true","true","2864.2299999992247"
"","html-voicekey-response","9","183420","0.0-4.5-0.5","a8oa198p59h6p7d","{""user_agent"":""Mozilla/5.0 (Macintosh; Intel Mac OS X 10_14_4) AppleWebKit/537.36 (KHTML, like Gecko) Chrome/74.0.3729.169 Safari/537.36"",""on_chrome"":true,""on_mobile"":false,""language"":""en-US"",""screen_resolution"":[1440,900],""platform"":""MacIntel"",""timezone"":""Europe/Berlin""}","22","1921.6249999970664","","","1559121468849","4","","Würzburg","[]","Würzburg","true","true","2779.9899999990885"
"","html-voicekey-response","10","188842","0.0-4.6-0.6","a8oa198p59h6p7d","{""user_agent"":""Mozilla/5.0 (Macintosh; Intel Mac OS X 10_14_4) AppleWebKit/537.36 (KHTML, like Gecko) Chrome/74.0.3729.169 Safari/537.36"",""on_chrome"":true,""on_mobile"":false,""language"":""en-US"",""screen_resolution"":[1440,900],""platform"":""MacIntel"",""timezone"":""Europe/Berlin""}","22","4056.3249999994064","","","1559121472231","3","","Ingolstadt","[]","Ingolstadt","true","false","4820.229999997537"
"","html-voicekey-response","11","192026","0.0-4.7-0.7","a8oa198p59h6p7d","{""user_agent"":""Mozilla/5.0 (Macintosh; Intel Mac OS X 10_14_4) AppleWebKit/537.36 (KHTML, like Gecko) Chrome/74.0.3729.169 Safari/537.36"",""on_chrome"":true,""on_mobile"":false,""language"":""en-US"",""screen_resolution"":[1440,900],""platform"":""MacIntel"",""timezone"":""Europe/Berlin""}","22","1989.2100000013947","","","1559121477654","4","","Würzburg","[]","Würzburg","true","false","2581.3100000013947"
"","html-voicekey-response","12","195310","0.0-4.8-0.8","a8oa198p59h6p7d","{""user_agent"":""Mozilla/5.0 (Macintosh; Intel Mac OS X 10_14_4) AppleWebKit/537.36 (KHTML, like Gecko) Chrome/74.0.3729.169 Safari/537.36"",""on_chrome"":true,""on_mobile"":false,""language"":""en-US"",""screen_resolution"":[1440,900],""platform"":""MacIntel"",""timezone"":""Europe/Berlin""}","22","1672.6849999993924","","","1559121480837","5","","Aachen","[]","Aachen","true","true","2681.5600000009"
"","html-voicekey-response","13","198618","0.0-4.9-0.9","a8oa198p59h6p7d","{""user_agent"":""Mozilla/5.0 (Macintosh; Intel Mac OS X 10_14_4) AppleWebKit/537.36 (KHTML, like Gecko) Chrome/74.0.3729.169 Safari/537.36"",""on_chrome"":true,""on_mobile"":false,""language"":""en-US"",""screen_resolution"":[1440,900],""platform"":""MacIntel"",""timezone"":""Europe/Berlin""}","22","1680.8700000018057","","","1559121484121","6","","Dresden","[]","Dresden","true","true","2706.3249999991967"
"","html-voicekey-response","14","209754","0.0-4.10-0.10","a8oa198p59h6p7d","{""user_agent"":""Mozilla/5.0 (Macintosh; Intel Mac OS X 10_14_4) AppleWebKit/537.36 (KHTML, like Gecko) Chrome/74.0.3729.169 Safari/537.36"",""on_chrome"":true,""on_mobile"":false,""language"":""en-US"",""screen_resolution"":[1440,900],""platform"":""MacIntel"",""timezone"":""Europe/Berlin""}","22","5772.249999999831","","","1559121487429","5","","","[]","Aachen","false","false","7131.564999999682"
"","html-voicekey-response","15","213075","0.0-4.11-0.11","a8oa198p59h6p7d","{""user_agent"":""Mozilla/5.0 (Macintosh; Intel Mac OS X 10_14_4) AppleWebKit/537.36 (KHTML, like Gecko) Chrome/74.0.3729.169 Safari/537.36"",""on_chrome"":true,""on_mobile"":false,""language"":""en-US"",""screen_resolution"":[1440,900],""platform"":""MacIntel"",""timezone"":""Europe/Berlin""}","22","1876.6799999992422","","","1559121498565","6","","Dresden","[]","Dresden","true","false","2718.6000000001513"
"","html-voicekey-response","16","216042","0.0-4.12-0.12","a8oa198p59h6p7d","{""user_agent"":""Mozilla/5.0 (Macintosh; Intel Mac OS X 10_14_4) AppleWebKit/537.36 (KHTML, like Gecko) Chrome/74.0.3729.169 Safari/537.36"",""on_chrome"":true,""on_mobile"":false,""language"":""en-US"",""screen_resolution"":[1440,900],""platform"":""MacIntel"",""timezone"":""Europe/Berlin""}","22","1723.0899999975286","","","1559121501886","1","","Magdeburg","[]","Magdeburg","true","false","2365.1599999975588"
"","html-voicekey-response","17","218517","0.0-4.13-0.13","a8oa198p59h6p7d","{""user_agent"":""Mozilla/5.0 (Macintosh; Intel Mac OS X 10_14_4) AppleWebKit/537.36 (KHTML, like Gecko) Chrome/74.0.3729.169 Safari/537.36"",""on_chrome"":true,""on_mobile"":false,""language"":""en-US"",""screen_resolution"":[1440,900],""platform"":""MacIntel"",""timezone"":""Europe/Berlin""}","22","1212.9949999997102","","","1559121504854","2","","Berlin","[]","Berlin","true","false","1871.6349999995145"
"","html-voicekey-response","18","221884","0.0-4.14-0.14","a8oa198p59h6p7d","{""user_agent"":""Mozilla/5.0 (Macintosh; Intel Mac OS X 10_14_4) AppleWebKit/537.36 (KHTML, like Gecko) Chrome/74.0.3729.169 Safari/537.36"",""on_chrome"":true,""on_mobile"":false,""language"":""en-US"",""screen_resolution"":[1440,900],""platform"":""MacIntel"",""timezone"":""Europe/Berlin""}","22","2105.659999999107","","","1559121507329","7","","Erfurt","[]","Erfurt","true","true","2764.2400000004272"
"","html-voicekey-response","19","225351","0.0-4.15-0.15","a8oa198p59h6p7d","{""user_agent"":""Mozilla/5.0 (Macintosh; Intel Mac OS X 10_14_4) AppleWebKit/537.36 (KHTML, like Gecko) Chrome/74.0.3729.169 Safari/537.36"",""on_chrome"":true,""on_mobile"":false,""language"":""en-US"",""screen_resolution"":[1440,900],""platform"":""MacIntel"",""timezone"":""Europe/Berlin""}","22","2171.4350000018662","","","1559121510696","8","","Gotha","[]","Gotha","true","true","2864.320000000589"
"","html-voicekey-response","20","236707","0.0-4.16-0.16","a8oa198p59h6p7d","{""user_agent"":""Mozilla/5.0 (Macintosh; Intel Mac OS X 10_14_4) AppleWebKit/537.36 (KHTML, like Gecko) Chrome/74.0.3729.169 Safari/537.36"",""on_chrome"":true,""on_mobile"":false,""language"":""en-US"",""screen_resolution"":[1440,900],""platform"":""MacIntel"",""timezone"":""Europe/Berlin""}","22","6920.929999998252","","","1559121514163","7","","","[]","Erfurt","false","false","7353.149999999005"
"","html-voicekey-response","21","240236","0.0-4.17-0.17","a8oa198p59h6p7d","{""user_agent"":""Mozilla/5.0 (Macintosh; Intel Mac OS X 10_14_4) AppleWebKit/537.36 (KHTML, like Gecko) Chrome/74.0.3729.169 Safari/537.36"",""on_chrome"":true,""on_mobile"":false,""language"":""en-US"",""screen_resolution"":[1440,900],""platform"":""MacIntel"",""timezone"":""Europe/Berlin""}","22","2039.0150000001363","","","1559121525519","8","","Gotha","[]","Gotha","true","false","2926.5750000013213"
"","html-voicekey-response","22","246836","0.0-4.18-0.18","a8oa198p59h6p7d","{""user_agent"":""Mozilla/5.0 (Macintosh; Intel Mac OS X 10_14_4) AppleWebKit/537.36 (KHTML, like Gecko) Chrome/74.0.3729.169 Safari/537.36"",""on_chrome"":true,""on_mobile"":false,""language"":""en-US"",""screen_resolution"":[1440,900],""platform"":""MacIntel"",""timezone"":""Europe/Berlin""}","22","5339.519999999384","","","1559121529048","3","","Ingolstadt","[]","Ingolstadt","true","false","5996.760000001814"
"","html-voicekey-response","23","249794","0.0-4.19-0.19","a8oa198p59h6p7d","{""user_agent"":""Mozilla/5.0 (Macintosh; Intel Mac OS X 10_14_4) AppleWebKit/537.36 (KHTML, like Gecko) Chrome/74.0.3729.169 Safari/537.36"",""on_chrome"":true,""on_mobile"":false,""language"":""en-US"",""screen_resolution"":[1440,900],""platform"":""MacIntel"",""timezone"":""Europe/Berlin""}","22","1505.6149999998802","","","1559121535647","4","","Würzburg","[]","Würzburg","true","false","2355.6099999987055"
"","html-voicekey-response","24","252511","0.0-4.20-0.20","a8oa198p59h6p7d","{""user_agent"":""Mozilla/5.0 (Macintosh; Intel Mac OS X 10_14_4) AppleWebKit/537.36 (KHTML, like Gecko) Chrome/74.0.3729.169 Safari/537.36"",""on_chrome"":true,""on_mobile"":false,""language"":""en-US"",""screen_resolution"":[1440,900],""platform"":""MacIntel"",""timezone"":""Europe/Berlin""}","22","1605.549999998248","","","1559121538607","5","","Aachen","[]","Aachen","true","false","2113.5899999972025"
"","html-voicekey-response","25","256310","0.0-4.21-0.21","a8oa198p59h6p7d","{""user_agent"":""Mozilla/5.0 (Macintosh; Intel Mac OS X 10_14_4) AppleWebKit/537.36 (KHTML, like Gecko) Chrome/74.0.3729.169 Safari/537.36"",""on_chrome"":true,""on_mobile"":false,""language"":""en-US"",""screen_resolution"":[1440,900],""platform"":""MacIntel"",""timezone"":""Europe/Berlin""}","22","2703.5149999990886","","","1559121541323","9","","München","[]","München","true","true","3196.314999997412"
"","html-voicekey-response","26","259127","0.0-4.22-0.22","a8oa198p59h6p7d","{""user_agent"":""Mozilla/5.0 (Macintosh; Intel Mac OS X 10_14_4) AppleWebKit/537.36 (KHTML, like Gecko) Chrome/74.0.3729.169 Safari/537.36"",""on_chrome"":true,""on_mobile"":false,""language"":""en-US"",""screen_resolution"":[1440,900],""platform"":""MacIntel"",""timezone"":""Europe/Berlin""}","22","1622.2649999998162","","","1559121545122","10","","Heidelberg","[]","Heidelberg","true","true","2214.1149999988556"
"","html-voicekey-response","27","264020","0.0-4.23-0.23","a8oa198p59h6p7d","{""user_agent"":""Mozilla/5.0 (Macintosh; Intel Mac OS X 10_14_4) AppleWebKit/537.36 (KHTML, like Gecko) Chrome/74.0.3729.169 Safari/537.36"",""on_chrome"":true,""on_mobile"":false,""language"":""en-US"",""screen_resolution"":[1440,900],""platform"":""MacIntel"",""timezone"":""Europe/Berlin""}","22","3747.1800000001153","","","1559121547939","9","","München","[]","München","true","false","4289.420000000944"
"","html-voicekey-response","28","267136","0.0-4.24-0.24","a8oa198p59h6p7d","{""user_agent"":""Mozilla/5.0 (Macintosh; Intel Mac OS X 10_14_4) AppleWebKit/537.36 (KHTML, like Gecko) Chrome/74.0.3729.169 Safari/537.36"",""on_chrome"":true,""on_mobile"":false,""language"":""en-US"",""screen_resolution"":[1440,900],""platform"":""MacIntel"",""timezone"":""Europe/Berlin""}","22","1936.9100000020467","","","1559121552832","10","","Heidelberg","[]","Heidelberg","true","false","2513.0300000018906"
"","html-voicekey-response","29","269553","0.0-4.25-0.25","a8oa198p59h6p7d","{""user_agent"":""Mozilla/5.0 (Macintosh; Intel Mac OS X 10_14_4) AppleWebKit/537.36 (KHTML, like Gecko) Chrome/74.0.3729.169 Safari/537.36"",""on_chrome"":true,""on_mobile"":false,""language"":""en-US"",""screen_resolution"":[1440,900],""platform"":""MacIntel"",""timezone"":""Europe/Berlin""}","22","1287.0549999986893","","","1559121555949","6","","Dresden","[]","Dresden","true","false","1813.269999998738"
"","html-voicekey-response","30","272508","0.0-4.26-0.26","a8oa198p59h6p7d","{""user_agent"":""Mozilla/5.0 (Macintosh; Intel Mac OS X 10_14_4) AppleWebKit/537.36 (KHTML, like Gecko) Chrome/74.0.3729.169 Safari/537.36"",""on_chrome"":true,""on_mobile"":false,""language"":""en-US"",""screen_resolution"":[1440,900],""platform"":""MacIntel"",""timezone"":""Europe/Berlin""}","22","1728.7899999990245","","","1559121558364","11","","Alfeld","[]","Alfeld","true","true","2353.6800000001676"
"","html-voicekey-response","31","275609","0.0-4.27-0.27","a8oa198p59h6p7d","{""user_agent"":""Mozilla/5.0 (Macintosh; Intel Mac OS X 10_14_4) AppleWebKit/537.36 (KHTML, like Gecko) Chrome/74.0.3729.169 Safari/537.36"",""on_chrome"":true,""on_mobile"":false,""language"":""en-US"",""screen_resolution"":[1440,900],""platform"":""MacIntel"",""timezone"":""Europe/Berlin""}","22","1922.645000000403","","","1559121561320","7","","Erfurt","[]","Erfurt","true","false","2498.0849999992643"
"","html-voicekey-response","32","284978","0.0-4.28-0.28","a8oa198p59h6p7d","{""user_agent"":""Mozilla/5.0 (Macintosh; Intel Mac OS X 10_14_4) AppleWebKit/537.36 (KHTML, like Gecko) Chrome/74.0.3729.169 Safari/537.36"",""on_chrome"":true,""on_mobile"":false,""language"":""en-US"",""screen_resolution"":[1440,900],""platform"":""MacIntel"",""timezone"":""Europe/Berlin""}","22","3871.3750000004425","","","1559121564421","11","","","[]","Alfeld","false","false","5364.125000000058"
"","html-voicekey-response","33","289784","0.0-4.29-0.29","a8oa198p59h6p7d","{""user_agent"":""Mozilla/5.0 (Macintosh; Intel Mac OS X 10_14_4) AppleWebKit/537.36 (KHTML, like Gecko) Chrome/74.0.3729.169 Safari/537.36"",""on_chrome"":true,""on_mobile"":false,""language"":""en-US"",""screen_resolution"":[1440,900],""platform"":""MacIntel"",""timezone"":""Europe/Berlin""}","22","1693.4449999988196","","","1559121573789","3","","Ingolstadt","[]","Ingolstadt","true","false","4203.599999997066"
"","html-voicekey-response","34","293775","0.0-4.30-0.30","a8oa198p59h6p7d","{""user_agent"":""Mozilla/5.0 (Macintosh; Intel Mac OS X 10_14_4) AppleWebKit/537.36 (KHTML, like Gecko) Chrome/74.0.3729.169 Safari/537.36"",""on_chrome"":true,""on_mobile"":false,""language"":""en-US"",""screen_resolution"":[1440,900],""platform"":""MacIntel"",""timezone"":""Europe/Berlin""}","22","2821.2050000018558","","","1559121578596","8","","Gotha","[]","Gotha","true","false","3389.145000001008"
"","html-voicekey-response","35","297192","0.0-4.31-0.31","a8oa198p59h6p7d","{""user_agent"":""Mozilla/5.0 (Macintosh; Intel Mac OS X 10_14_4) AppleWebKit/537.36 (KHTML, like Gecko) Chrome/74.0.3729.169 Safari/537.36"",""on_chrome"":true,""on_mobile"":false,""language"":""en-US"",""screen_resolution"":[1440,900],""platform"":""MacIntel"",""timezone"":""Europe/Berlin""}","22","2170.109999997169","","","1559121582589","12","","Dessau","[]","Dessau","true","true","2812.069999999949"
"","html-voicekey-response","36","300492","0.0-4.32-0.32","a8oa198p59h6p7d","{""user_agent"":""Mozilla/5.0 (Macintosh; Intel Mac OS X 10_14_4) AppleWebKit/537.36 (KHTML, like Gecko) Chrome/74.0.3729.169 Safari/537.36"",""on_chrome"":true,""on_mobile"":false,""language"":""en-US"",""screen_resolution"":[1440,900],""platform"":""MacIntel"",""timezone"":""Europe/Berlin""}","22","1721.2750000015135","","","1559121586004","13","","Chemnitz","[]","Chemnitz","true","true","2697.305000001448"
"","html-voicekey-response","37","309284","0.0-4.33-0.33","a8oa198p59h6p7d","{""user_agent"":""Mozilla/5.0 (Macintosh; Intel Mac OS X 10_14_4) AppleWebKit/537.36 (KHTML, like Gecko) Chrome/74.0.3729.169 Safari/537.36"",""on_chrome"":true,""on_mobile"":false,""language"":""en-US"",""screen_resolution"":[1440,900],""platform"":""MacIntel"",""timezone"":""Europe/Berlin""}","22","3647.590000002156","","","1559121589303","12","","","[]","Dessau","false","false","4789.61999999953"
"","html-voicekey-response","38","321752","0.0-4.34-0.34","a8oa198p59h6p7d","{""user_agent"":""Mozilla/5.0 (Macintosh; Intel Mac OS X 10_14_4) AppleWebKit/537.36 (KHTML, like Gecko) Chrome/74.0.3729.169 Safari/537.36"",""on_chrome"":true,""on_mobile"":false,""language"":""en-US"",""screen_resolution"":[1440,900],""platform"":""MacIntel"",""timezone"":""Europe/Berlin""}","22","7871.550000001478","","","1559121598096","13","","","[]","Chemnitz","false","false","8463.825000002573"
"","html-voicekey-response","39","324816","0.0-4.35-0.35","a8oa198p59h6p7d","{""user_agent"":""Mozilla/5.0 (Macintosh; Intel Mac OS X 10_14_4) AppleWebKit/537.36 (KHTML, like Gecko) Chrome/74.0.3729.169 Safari/537.36"",""on_chrome"":true,""on_mobile"":false,""language"":""en-US"",""screen_resolution"":[1440,900],""platform"":""MacIntel"",""timezone"":""Europe/Berlin""}","22","1869.3250000013272","","","1559121610564","9","","München","[]","München","true","false","2461.1000000004424"
"","html-voicekey-response","40","327349","0.0-4.36-0.36","a8oa198p59h6p7d","{""user_agent"":""Mozilla/5.0 (Macintosh; Intel Mac OS X 10_14_4) AppleWebKit/537.36 (KHTML, like Gecko) Chrome/74.0.3729.169 Safari/537.36"",""on_chrome"":true,""on_mobile"":false,""language"":""en-US"",""screen_resolution"":[1440,900],""platform"":""MacIntel"",""timezone"":""Europe/Berlin""}","22","1354.6650000005961","","","1559121613627","10","","Heidelberg","[]","Heidelberg","true","false","1930.3600000021397"
"","html-voicekey-response","41","330368","0.0-4.37-0.37","a8oa198p59h6p7d","{""user_agent"":""Mozilla/5.0 (Macintosh; Intel Mac OS X 10_14_4) AppleWebKit/537.36 (KHTML, like Gecko) Chrome/74.0.3729.169 Safari/537.36"",""on_chrome"":true,""on_mobile"":false,""language"":""en-US"",""screen_resolution"":[1440,900],""platform"":""MacIntel"",""timezone"":""Europe/Berlin""}","22","1738.6999999997556","","","1559121616161","11","","Alfeld","[]","Alfeld","true","false","2416.23999999871"
"","html-voicekey-response","42","333901","0.0-4.38-0.38","a8oa198p59h6p7d","{""user_agent"":""Mozilla/5.0 (Macintosh; Intel Mac OS X 10_14_4) AppleWebKit/537.36 (KHTML, like Gecko) Chrome/74.0.3729.169 Safari/537.36"",""on_chrome"":true,""on_mobile"":false,""language"":""en-US"",""screen_resolution"":[1440,900],""platform"":""MacIntel"",""timezone"":""Europe/Berlin""}","22","2387.1150000029943","","","1559121619180","14","","Potsdam","[]","Potsdam","true","true","2930.1650000015507"
"","html-voicekey-response","43","337118","0.0-4.39-0.39","a8oa198p59h6p7d","{""user_agent"":""Mozilla/5.0 (Macintosh; Intel Mac OS X 10_14_4) AppleWebKit/537.36 (KHTML, like Gecko) Chrome/74.0.3729.169 Safari/537.36"",""on_chrome"":true,""on_mobile"":false,""language"":""en-US"",""screen_resolution"":[1440,900],""platform"":""MacIntel"",""timezone"":""Europe/Berlin""}","22","1554.0549999985728","","","1559121622714","15","","Nürnberg","[]","Nürnberg","true","true","2612.669999998645"
"","html-voicekey-response","44","343333","0.0-4.40-0.40","a8oa198p59h6p7d","{""user_agent"":""Mozilla/5.0 (Macintosh; Intel Mac OS X 10_14_4) AppleWebKit/537.36 (KHTML, like Gecko) Chrome/74.0.3729.169 Safari/537.36"",""on_chrome"":true,""on_mobile"":false,""language"":""en-US"",""screen_resolution"":[1440,900],""platform"":""MacIntel"",""timezone"":""Europe/Berlin""}","22","4820.459999997029","","","1559121625930","14","","Potsdam","[]","Potsdam","true","false","5611.899999999907"
"","html-voicekey-response","45","352099","0.0-4.41-0.41","a8oa198p59h6p7d","{""user_agent"":""Mozilla/5.0 (Macintosh; Intel Mac OS X 10_14_4) AppleWebKit/537.36 (KHTML, like Gecko) Chrome/74.0.3729.169 Safari/537.36"",""on_chrome"":true,""on_mobile"":false,""language"":""en-US"",""screen_resolution"":[1440,900],""platform"":""MacIntel"",""timezone"":""Europe/Berlin""}","22","4039.5550000010758","","","1559121632145","15","","","[]","Nürnberg","false","false","4763.710000002931"
"","html-voicekey-response","46","355289","0.0-4.42-0.42","a8oa198p59h6p7d","{""user_agent"":""Mozilla/5.0 (Macintosh; Intel Mac OS X 10_14_4) AppleWebKit/537.36 (KHTML, like Gecko) Chrome/74.0.3729.169 Safari/537.36"",""on_chrome"":true,""on_mobile"":false,""language"":""en-US"",""screen_resolution"":[1440,900],""platform"":""MacIntel"",""timezone"":""Europe/Berlin""}","22","1919.594999997446","","","1559121640914","12","","Dessau","[]","Dessau","true","false","2584.520000000368"
"","html-voicekey-response","47","357990","0.0-4.43-0.43","a8oa198p59h6p7d","{""user_agent"":""Mozilla/5.0 (Macintosh; Intel Mac OS X 10_14_4) AppleWebKit/537.36 (KHTML, like Gecko) Chrome/74.0.3729.169 Safari/537.36"",""on_chrome"":true,""on_mobile"":false,""language"":""en-US"",""screen_resolution"":[1440,900],""platform"":""MacIntel"",""timezone"":""Europe/Berlin""}","22","1386.8249999994646","","","1559121644102","8","","Gotha","[]","Gotha","true","false","2096.349999999802"
"","html-voicekey-response","48","361072","0.0-4.44-0.44","a8oa198p59h6p7d","{""user_agent"":""Mozilla/5.0 (Macintosh; Intel Mac OS X 10_14_4) AppleWebKit/537.36 (KHTML, like Gecko) Chrome/74.0.3729.169 Safari/537.36"",""on_chrome"":true,""on_mobile"":false,""language"":""en-US"",""screen_resolution"":[1440,900],""platform"":""MacIntel"",""timezone"":""Europe/Berlin""}","22","1837.8599999976927","","","1559121646802","13","","Chemnitz","[]","Chemnitz","true","false","2479.264999998093"
"","html-voicekey-response","49","364308","0.0-4.45-0.45","a8oa198p59h6p7d","{""user_agent"":""Mozilla/5.0 (Macintosh; Intel Mac OS X 10_14_4) AppleWebKit/537.36 (KHTML, like Gecko) Chrome/74.0.3729.169 Safari/537.36"",""on_chrome"":true,""on_mobile"":false,""language"":""en-US"",""screen_resolution"":[1440,900],""platform"":""MacIntel"",""timezone"":""Europe/Berlin""}","22","1806.0149999999908","","","1559121649884","16","","Schwangau","[]","Schwangau","true","true","2630.6450000010664"
"","html-voicekey-response","50","367348","0.0-4.46-0.46","a8oa198p59h6p7d","{""user_agent"":""Mozilla/5.0 (Macintosh; Intel Mac OS X 10_14_4) AppleWebKit/537.36 (KHTML, like Gecko) Chrome/74.0.3729.169 Safari/537.36"",""on_chrome"":true,""on_mobile"":false,""language"":""en-US"",""screen_resolution"":[1440,900],""platform"":""MacIntel"",""timezone"":""Europe/Berlin""}","22","1627.7700000008103","","","1559121653121","17","","Leipzig","[]","Leipzig","true","true","2436.4500000010594"
"","html-voicekey-response","51","370397","0.0-4.47-0.47","a8oa198p59h6p7d","{""user_agent"":""Mozilla/5.0 (Macintosh; Intel Mac OS X 10_14_4) AppleWebKit/537.36 (KHTML, like Gecko) Chrome/74.0.3729.169 Safari/537.36"",""on_chrome"":true,""on_mobile"":false,""language"":""en-US"",""screen_resolution"":[1440,900],""platform"":""MacIntel"",""timezone"":""Europe/Berlin""}","22","1854.3400000033203","","","1559121656160","16","","Schwangau","[]","Schwangau","true","false","2446.4200000001583"
"","html-voicekey-response","52","373281","0.0-4.48-0.48","a8oa198p59h6p7d","{""user_agent"":""Mozilla/5.0 (Macintosh; Intel Mac OS X 10_14_4) AppleWebKit/537.36 (KHTML, like Gecko) Chrome/74.0.3729.169 Safari/537.36"",""on_chrome"":true,""on_mobile"":false,""language"":""en-US"",""screen_resolution"":[1440,900],""platform"":""MacIntel"",""timezone"":""Europe/Berlin""}","22","1738.0749999991735","","","1559121659210","17","","Leipzig","[]","Leipzig","true","false","2280.1650000000955"
"","html-voicekey-response","53","376772","0.0-4.49-0.49","a8oa198p59h6p7d","{""user_agent"":""Mozilla/5.0 (Macintosh; Intel Mac OS X 10_14_4) AppleWebKit/537.36 (KHTML, like Gecko) Chrome/74.0.3729.169 Safari/537.36"",""on_chrome"":true,""on_mobile"":false,""language"":""en-US"",""screen_resolution"":[1440,900],""platform"":""MacIntel"",""timezone"":""Europe/Berlin""}","22","1922.869999996596","","","1559121662092","3","","Ingolstadt","[]","Ingolstadt","true","false","2889.1249999979045"
"","html-voicekey-response","54","379640","0.0-4.50-0.50","a8oa198p59h6p7d","{""user_agent"":""Mozilla/5.0 (Macintosh; Intel Mac OS X 10_14_4) AppleWebKit/537.36 (KHTML, like Gecko) Chrome/74.0.3729.169 Safari/537.36"",""on_chrome"":true,""on_mobile"":false,""language"":""en-US"",""screen_resolution"":[1440,900],""platform"":""MacIntel"",""timezone"":""Europe/Berlin""}","22","1755.695000001439","","","1559121665584","18","","Forchheim","[]","Forchheim","true","true","2264.450000002398"
"","html-voicekey-response","55","382823","0.0-4.51-0.51","a8oa198p59h6p7d","{""user_agent"":""Mozilla/5.0 (Macintosh; Intel Mac OS X 10_14_4) AppleWebKit/537.36 (KHTML, like Gecko) Chrome/74.0.3729.169 Safari/537.36"",""on_chrome"":true,""on_mobile"":false,""language"":""en-US"",""screen_resolution"":[1440,900],""platform"":""MacIntel"",""timezone"":""Europe/Berlin""}","22","1738.4099999997766","","","1559121668451","19","","Frankfurt","[]","Frankfurt","true","true","2580.665000001318"
"","html-voicekey-response","56","391308","0.0-4.52-0.52","a8oa198p59h6p7d","{""user_agent"":""Mozilla/5.0 (Macintosh; Intel Mac OS X 10_14_4) AppleWebKit/537.36 (KHTML, like Gecko) Chrome/74.0.3729.169 Safari/537.36"",""on_chrome"":true,""on_mobile"":false,""language"":""en-US"",""screen_resolution"":[1440,900],""platform"":""MacIntel"",""timezone"":""Europe/Berlin""}","22","3304.24500000102","","","1559121671635","18","","","[]","Forchheim","false","false","4480.309999999008"
"","html-voicekey-response","57","394701","0.0-4.53-0.53","a8oa198p59h6p7d","{""user_agent"":""Mozilla/5.0 (Macintosh; Intel Mac OS X 10_14_4) AppleWebKit/537.36 (KHTML, like Gecko) Chrome/74.0.3729.169 Safari/537.36"",""on_chrome"":true,""on_mobile"":false,""language"":""en-US"",""screen_resolution"":[1440,900],""platform"":""MacIntel"",""timezone"":""Europe/Berlin""}","22","2247.9949999995647","","","1559121680120","19","","Frankfurt","[]","Frankfurt","true","false","2790.020000000368"
"","html-voicekey-response","58","397536","0.0-4.54-0.54","a8oa198p59h6p7d","{""user_agent"":""Mozilla/5.0 (Macintosh; Intel Mac OS X 10_14_4) AppleWebKit/537.36 (KHTML, like Gecko) Chrome/74.0.3729.169 Safari/537.36"",""on_chrome"":true,""on_mobile"":false,""language"":""en-US"",""screen_resolution"":[1440,900],""platform"":""MacIntel"",""timezone"":""Europe/Berlin""}","22","1655.059999998985","","","1559121683512","14","","Potsdam","[]","Potsdam","true","false","2230.7199999995646"
"","html-voicekey-response","59","407276","0.0-4.55-0.55","a8oa198p59h6p7d","{""user_agent"":""Mozilla/5.0 (Macintosh; Intel Mac OS X 10_14_4) AppleWebKit/537.36 (KHTML, like Gecko) Chrome/74.0.3729.169 Safari/537.36"",""on_chrome"":true,""on_mobile"":false,""language"":""en-US"",""screen_resolution"":[1440,900],""platform"":""MacIntel"",""timezone"":""Europe/Berlin""}","22","4260.465000001108","","","1559121686348","15","","","[]","Nürnberg","false","false","5736.74000000034"
"","html-voicekey-response","60","411032","0.0-4.56-0.56","a8oa198p59h6p7d","{""user_agent"":""Mozilla/5.0 (Macintosh; Intel Mac OS X 10_14_4) AppleWebKit/537.36 (KHTML, like Gecko) Chrome/74.0.3729.169 Safari/537.36"",""on_chrome"":true,""on_mobile"":false,""language"":""en-US"",""screen_resolution"":[1440,900],""platform"":""MacIntel"",""timezone"":""Europe/Berlin""}","22","1871.030000000063","","","1559121696087","20","","Hamburg ","[]","Hamburg ","true","true","3154.4899999971385"
"","html-voicekey-response","61","414316","0.0-4.57-0.57","a8oa198p59h6p7d","{""user_agent"":""Mozilla/5.0 (Macintosh; Intel Mac OS X 10_14_4) AppleWebKit/537.36 (KHTML, like Gecko) Chrome/74.0.3729.169 Safari/537.36"",""on_chrome"":true,""on_mobile"":false,""language"":""en-US"",""screen_resolution"":[1440,900],""platform"":""MacIntel"",""timezone"":""Europe/Berlin""}","22","2088.3300000003424","","","1559121699844","21","","Konstanz","[]","Konstanz","true","true","2680.960000001476"
"","html-voicekey-response","62","417616","0.0-4.58-0.58","a8oa198p59h6p7d","{""user_agent"":""Mozilla/5.0 (Macintosh; Intel Mac OS X 10_14_4) AppleWebKit/537.36 (KHTML, like Gecko) Chrome/74.0.3729.169 Safari/537.36"",""on_chrome"":true,""on_mobile"":false,""language"":""en-US"",""screen_resolution"":[1440,900],""platform"":""MacIntel"",""timezone"":""Europe/Berlin""}","22","2203.6600000008825","","","1559121703129","20","","Hamburg ","[]","Hamburg ","true","false","2695.8100000011036"
"","html-voicekey-response","63","422123","0.0-4.59-0.59","a8oa198p59h6p7d","{""user_agent"":""Mozilla/5.0 (Macintosh; Intel Mac OS X 10_14_4) AppleWebKit/537.36 (KHTML, like Gecko) Chrome/74.0.3729.169 Safari/537.36"",""on_chrome"":true,""on_mobile"":false,""language"":""en-US"",""screen_resolution"":[1440,900],""platform"":""MacIntel"",""timezone"":""Europe/Berlin""}","22","2805.194999998878","","","1559121706428","21","","Konstanz","[]","Konstanz","true","false","3903.619999997318"
"","html-voicekey-response","64","424989","0.0-4.60-0.60","a8oa198p59h6p7d","{""user_agent"":""Mozilla/5.0 (Macintosh; Intel Mac OS X 10_14_4) AppleWebKit/537.36 (KHTML, like Gecko) Chrome/74.0.3729.169 Safari/537.36"",""on_chrome"":true,""on_mobile"":false,""language"":""en-US"",""screen_resolution"":[1440,900],""platform"":""MacIntel"",""timezone"":""Europe/Berlin""}","22","1638.29499999868","","","1559121710934","16","","Schwangau","[]","Schwangau","true","false","2264.035000000149"
"","html-voicekey-response","65","427772","0.0-4.61-0.61","a8oa198p59h6p7d","{""user_agent"":""Mozilla/5.0 (Macintosh; Intel Mac OS X 10_14_4) AppleWebKit/537.36 (KHTML, like Gecko) Chrome/74.0.3729.169 Safari/537.36"",""on_chrome"":true,""on_mobile"":false,""language"":""en-US"",""screen_resolution"":[1440,900],""platform"":""MacIntel"",""timezone"":""Europe/Berlin""}","22","1505.2750000011642","","","1559121713801","17","","Leipzig","[]","Leipzig","true","false","2180.5700000004144"
"","html-voicekey-response","66","435214","0.0-4.62-0.62","a8oa198p59h6p7d","{""user_agent"":""Mozilla/5.0 (Macintosh; Intel Mac OS X 10_14_4) AppleWebKit/537.36 (KHTML, like Gecko) Chrome/74.0.3729.169 Safari/537.36"",""on_chrome"":true,""on_mobile"":false,""language"":""en-US"",""screen_resolution"":[1440,900],""platform"":""MacIntel"",""timezone"":""Europe/Berlin""}","22","2406.0449999977486","","","1559121716584","18","","","[]","Forchheim","false","false","3438.930000000226"
"","html-voicekey-response","67","438113","0.0-4.63-0.63","a8oa198p59h6p7d","{""user_agent"":""Mozilla/5.0 (Macintosh; Intel Mac OS X 10_14_4) AppleWebKit/537.36 (KHTML, like Gecko) Chrome/74.0.3729.169 Safari/537.36"",""on_chrome"":true,""on_mobile"":false,""language"":""en-US"",""screen_resolution"":[1440,900],""platform"":""MacIntel"",""timezone"":""Europe/Berlin""}","22","1504.9200000010665","","","1559121724025","22","","Bamberg","[]","Bamberg","true","true","2296.535000001313"
"","html-voicekey-response","68","442238","0.0-4.64-0.64","a8oa198p59h6p7d","{""user_agent"":""Mozilla/5.0 (Macintosh; Intel Mac OS X 10_14_4) AppleWebKit/537.36 (KHTML, like Gecko) Chrome/74.0.3729.169 Safari/537.36"",""on_chrome"":true,""on_mobile"":false,""language"":""en-US"",""screen_resolution"":[1440,900],""platform"":""MacIntel"",""timezone"":""Europe/Berlin""}","22","2956.094999999425","","","1559121726925","15","","Nürnberg","[]","Nürnberg","true","false","3522.559999997611"
"","html-voicekey-response","69","450638","0.0-4.65-0.65","a8oa198p59h6p7d","{""user_agent"":""Mozilla/5.0 (Macintosh; Intel Mac OS X 10_14_4) AppleWebKit/537.36 (KHTML, like Gecko) Chrome/74.0.3729.169 Safari/537.36"",""on_chrome"":true,""on_mobile"":false,""language"":""en-US"",""screen_resolution"":[1440,900],""platform"":""MacIntel"",""timezone"":""Europe/Berlin""}","22","3086.9500000024914","","","1559121731051","22","","","[]","Bamberg","false","false","4395.430000000517"
"","html-voicekey-response","70","453463","0.0-4.66-0.66","a8oa198p59h6p7d","{""user_agent"":""Mozilla/5.0 (Macintosh; Intel Mac OS X 10_14_4) AppleWebKit/537.36 (KHTML, like Gecko) Chrome/74.0.3729.169 Safari/537.36"",""on_chrome"":true,""on_mobile"":false,""language"":""en-US"",""screen_resolution"":[1440,900],""platform"":""MacIntel"",""timezone"":""Europe/Berlin""}","22","1672.0150000017952","","","1559121739449","19","","Frankfurt","[]","Frankfurt","true","false","2222.7249999996275"
"","html-voicekey-response","71","456796","0.0-4.67-0.67","a8oa198p59h6p7d","{""user_agent"":""Mozilla/5.0 (Macintosh; Intel Mac OS X 10_14_4) AppleWebKit/537.36 (KHTML, like Gecko) Chrome/74.0.3729.169 Safari/537.36"",""on_chrome"":true,""on_mobile"":false,""language"":""en-US"",""screen_resolution"":[1440,900],""platform"":""MacIntel"",""timezone"":""Europe/Berlin""}","22","2038.844999997155","","","1559121742275","23","","Stuttgart","[]","Stuttgart","true","true","2730.410000000149"
"","html-voicekey-response","72","459597","0.0-4.68-0.68","a8oa198p59h6p7d","{""user_agent"":""Mozilla/5.0 (Macintosh; Intel Mac OS X 10_14_4) AppleWebKit/537.36 (KHTML, like Gecko) Chrome/74.0.3729.169 Safari/537.36"",""on_chrome"":true,""on_mobile"":false,""language"":""en-US"",""screen_resolution"":[1440,900],""platform"":""MacIntel"",""timezone"":""Europe/Berlin""}","22","1705.195000000333","","","1559121745608","24","","Köln","[]","Köln","true","true","2197.329999999085"
"","html-voicekey-response","73","463280","0.0-4.69-0.69","a8oa198p59h6p7d","{""user_agent"":""Mozilla/5.0 (Macintosh; Intel Mac OS X 10_14_4) AppleWebKit/537.36 (KHTML, like Gecko) Chrome/74.0.3729.169 Safari/537.36"",""on_chrome"":true,""on_mobile"":false,""language"":""en-US"",""screen_resolution"":[1440,900],""platform"":""MacIntel"",""timezone"":""Europe/Berlin""}","22","2554.2549999971293","","","1559121748409","23","","Stuttgart","[]","Stuttgart","true","false","3079.4949999981327"
"","html-voicekey-response","74","466159","0.0-4.70-0.70","a8oa198p59h6p7d","{""user_agent"":""Mozilla/5.0 (Macintosh; Intel Mac OS X 10_14_4) AppleWebKit/537.36 (KHTML, like Gecko) Chrome/74.0.3729.169 Safari/537.36"",""on_chrome"":true,""on_mobile"":false,""language"":""en-US"",""screen_resolution"":[1440,900],""platform"":""MacIntel"",""timezone"":""Europe/Berlin""}","22","1834.7249999986147","","","1559121752092","24","","Köln","[]","Köln","true","false","2276.125000000291"
"","html-voicekey-response","75","468642","0.0-4.71-0.71","a8oa198p59h6p7d","{""user_agent"":""Mozilla/5.0 (Macintosh; Intel Mac OS X 10_14_4) AppleWebKit/537.36 (KHTML, like Gecko) Chrome/74.0.3729.169 Safari/537.36"",""on_chrome"":true,""on_mobile"":false,""language"":""en-US"",""screen_resolution"":[1440,900],""platform"":""MacIntel"",""timezone"":""Europe/Berlin""}","22","1388.875000002247","","","1559121754971","20","","Hamburg ","[]","Hamburg ","true","false","1880.860000001092"
"","html-voicekey-response","76","477943","0.0-4.72-0.72","a8oa198p59h6p7d","{""user_agent"":""Mozilla/5.0 (Macintosh; Intel Mac OS X 10_14_4) AppleWebKit/537.36 (KHTML, like Gecko) Chrome/74.0.3729.169 Safari/537.36"",""on_chrome"":true,""on_mobile"":false,""language"":""en-US"",""screen_resolution"":[1440,900],""platform"":""MacIntel"",""timezone"":""Europe/Berlin""}","22","3988.374999998871","","","1559121757454","21","","","[]","Konstanz","false","false","5296.805000001797"
"","html-voicekey-response","77","483484","0.0-4.73-0.73","a8oa198p59h6p7d","{""user_agent"":""Mozilla/5.0 (Macintosh; Intel Mac OS X 10_14_4) AppleWebKit/537.36 (KHTML, like Gecko) Chrome/74.0.3729.169 Safari/537.36"",""on_chrome"":true,""on_mobile"":false,""language"":""en-US"",""screen_resolution"":[1440,900],""platform"":""MacIntel"",""timezone"":""Europe/Berlin""}","22","4294.960000000987","","","1559121766755","15","","Nürnberg","[]","Nürnberg","true","false","4937.180000000866"
"","html-voicekey-response","78","486224","0.0-4.74-0.74","a8oa198p59h6p7d","{""user_agent"":""Mozilla/5.0 (Macintosh; Intel Mac OS X 10_14_4) AppleWebKit/537.36 (KHTML, like Gecko) Chrome/74.0.3729.169 Safari/537.36"",""on_chrome"":true,""on_mobile"":false,""language"":""en-US"",""screen_resolution"":[1440,900],""platform"":""MacIntel"",""timezone"":""Europe/Berlin""}","22","1545.6299999985845","","","1559121772295","18","","Forchheim","[]","Forchheim","true","false","2137.940000000526"
"","html-voicekey-response","79","489225","0.0-4.75-0.75","a8oa198p59h6p7d","{""user_agent"":""Mozilla/5.0 (Macintosh; Intel Mac OS X 10_14_4) AppleWebKit/537.36 (KHTML, like Gecko) Chrome/74.0.3729.169 Safari/537.36"",""on_chrome"":true,""on_mobile"":false,""language"":""en-US"",""screen_resolution"":[1440,900],""platform"":""MacIntel"",""timezone"":""Europe/Berlin""}","22","1836.935000000964","","","1559121775037","1","","Magdeburg","[]","Magdeburg","true","false","2397.110000001674"
"","html-voicekey-response","80","491574","0.0-4.76-0.76","a8oa198p59h6p7d","{""user_agent"":""Mozilla/5.0 (Macintosh; Intel Mac OS X 10_14_4) AppleWebKit/537.36 (KHTML, like Gecko) Chrome/74.0.3729.169 Safari/537.36"",""on_chrome"":true,""on_mobile"":false,""language"":""en-US"",""screen_resolution"":[1440,900],""platform"":""MacIntel"",""timezone"":""Europe/Berlin""}","22","1237.0150000004564","","","1559121778038","2","","Berlin","[]","Berlin","true","false","1745.1450000008335"
"","html-voicekey-response","81","503358","0.0-4.77-0.77","a8oa198p59h6p7d","{""user_agent"":""Mozilla/5.0 (Macintosh; Intel Mac OS X 10_14_4) AppleWebKit/537.36 (KHTML, like Gecko) Chrome/74.0.3729.169 Safari/537.36"",""on_chrome"":true,""on_mobile"":false,""language"":""en-US"",""screen_resolution"":[1440,900],""platform"":""MacIntel"",""timezone"":""Europe/Berlin""}","22","6387.639999998826","","","1559121780386","22","","","[]","Bamberg","false","false","7780.265000001178"
"","html-voicekey-response","82","506183","0.0-4.78-0.78","a8oa198p59h6p7d","{""user_agent"":""Mozilla/5.0 (Macintosh; Intel Mac OS X 10_14_4) AppleWebKit/537.36 (KHTML, like Gecko) Chrome/74.0.3729.169 Safari/537.36"",""on_chrome"":true,""on_mobile"":false,""language"":""en-US"",""screen_resolution"":[1440,900],""platform"":""MacIntel"",""timezone"":""Europe/Berlin""}","22","1579.7099999998231","","","1559121792170","23","","Stuttgart","[]","Stuttgart","true","false","2222.184999998717"
"","html-voicekey-response","83","509401","0.0-4.79-0.79","a8oa198p59h6p7d","{""user_agent"":""Mozilla/5.0 (Macintosh; Intel Mac OS X 10_14_4) AppleWebKit/537.36 (KHTML, like Gecko) Chrome/74.0.3729.169 Safari/537.36"",""on_chrome"":true,""on_mobile"":false,""language"":""en-US"",""screen_resolution"":[1440,900],""platform"":""MacIntel"",""timezone"":""Europe/Berlin""}","22","1938.3500000019908","","","1559121794995","25","","Osnabrück","[]","Osnabrück","true","true","2613.020000000659"
"","html-voicekey-response","84","512209","0.0-4.80-0.80","a8oa198p59h6p7d","{""user_agent"":""Mozilla/5.0 (Macintosh; Intel Mac OS X 10_14_4) AppleWebKit/537.36 (KHTML, like Gecko) Chrome/74.0.3729.169 Safari/537.36"",""on_chrome"":true,""on_mobile"":false,""language"":""en-US"",""screen_resolution"":[1440,900],""platform"":""MacIntel"",""timezone"":""Europe/Berlin""}","22","1729.4799999998418","","","1559121798213","24","","Köln","[]","Köln","true","false","2205.2350000012666"
"","html-voicekey-response","85","520977","0.0-4.81-0.81","a8oa198p59h6p7d","{""user_agent"":""Mozilla/5.0 (Macintosh; Intel Mac OS X 10_14_4) AppleWebKit/537.36 (KHTML, like Gecko) Chrome/74.0.3729.169 Safari/537.36"",""on_chrome"":true,""on_mobile"":false,""language"":""en-US"",""screen_resolution"":[1440,900],""platform"":""MacIntel"",""timezone"":""Europe/Berlin""}","22","4188.434999998053","","","1559121801021","25","","","[]","Osnabrück","false","false","4764.4299999992945"
"","html-voicekey-response","86","530037","0.0-4.82-0.82","a8oa198p59h6p7d","{""user_agent"":""Mozilla/5.0 (Macintosh; Intel Mac OS X 10_14_4) AppleWebKit/537.36 (KHTML, like Gecko) Chrome/74.0.3729.169 Safari/537.36"",""on_chrome"":true,""on_mobile"":false,""language"":""en-US"",""screen_resolution"":[1440,900],""platform"":""MacIntel"",""timezone"":""Europe/Berlin""}","22","4267.750000000733","","","1559121809791","21","","","[]","Konstanz","false","false","5054.489999998652"
"","html-voicekey-response","87","534603","0.0-4.83-0.83","a8oa198p59h6p7d","{""user_agent"":""Mozilla/5.0 (Macintosh; Intel Mac OS X 10_14_4) AppleWebKit/537.36 (KHTML, like Gecko) Chrome/74.0.3729.169 Safari/537.36"",""on_chrome"":true,""on_mobile"":false,""language"":""en-US"",""screen_resolution"":[1440,900],""platform"":""MacIntel"",""timezone"":""Europe/Berlin""}","22","3470.029999998375","","","1559121818849","15","","Nürnberg","[]","Nürnberg","true","false","3962.224999999278"
"","html-voicekey-response","88","537448","0.0-4.84-0.84","a8oa198p59h6p7d","{""user_agent"":""Mozilla/5.0 (Macintosh; Intel Mac OS X 10_14_4) AppleWebKit/537.36 (KHTML, like Gecko) Chrome/74.0.3729.169 Safari/537.36"",""on_chrome"":true,""on_mobile"":false,""language"":""en-US"",""screen_resolution"":[1440,900],""platform"":""MacIntel"",""timezone"":""Europe/Berlin""}","22","1432.3849999981235","","","1559121823415","22","","Bamberg","[]","Bamberg","true","false","2241.6699999993434"
"","html-voicekey-response","89","540215","0.0-4.85-0.85","a8oa198p59h6p7d","{""user_agent"":""Mozilla/5.0 (Macintosh; Intel Mac OS X 10_14_4) AppleWebKit/537.36 (KHTML, like Gecko) Chrome/74.0.3729.169 Safari/537.36"",""on_chrome"":true,""on_mobile"":false,""language"":""en-US"",""screen_resolution"":[1440,900],""platform"":""MacIntel"",""timezone"":""Europe/Berlin""}","22","1470.8100000004983","","","1559121826260","26","","Freiburg","[]","Freiburg","true","true","2163.3900000015274"
"","html-voicekey-response","90","543598","0.0-4.86-0.86","a8oa198p59h6p7d","{""user_agent"":""Mozilla/5.0 (Macintosh; Intel Mac OS X 10_14_4) AppleWebKit/537.36 (KHTML, like Gecko) Chrome/74.0.3729.169 Safari/537.36"",""on_chrome"":true,""on_mobile"":false,""language"":""en-US"",""screen_resolution"":[1440,900],""platform"":""MacIntel"",""timezone"":""Europe/Berlin""}","22","2022.1950000030688","","","1559121829027","27","","Tübingen","[]","Tübingen","true","true","2780.3300000014715"
"","html-voicekey-response","91","551840","0.0-4.87-0.87","a8oa198p59h6p7d","{""user_agent"":""Mozilla/5.0 (Macintosh; Intel Mac OS X 10_14_4) AppleWebKit/537.36 (KHTML, like Gecko) Chrome/74.0.3729.169 Safari/537.36"",""on_chrome"":true,""on_mobile"":false,""language"":""en-US"",""screen_resolution"":[1440,900],""platform"":""MacIntel"",""timezone"":""Europe/Berlin""}","22","3570.7300000011223","","","1559121832411","26","","","[]","Freiburg","false","false","4237.900000000023"
"","html-voicekey-response","92","555057","0.0-4.88-0.88","a8oa198p59h6p7d","{""user_agent"":""Mozilla/5.0 (Macintosh; Intel Mac OS X 10_14_4) AppleWebKit/537.36 (KHTML, like Gecko) Chrome/74.0.3729.169 Safari/537.36"",""on_chrome"":true,""on_mobile"":false,""language"":""en-US"",""screen_resolution"":[1440,900],""platform"":""MacIntel"",""timezone"":""Europe/Berlin""}","22","1904.0199999997626","","","1559121840652","27","","Tübingen","[]","Tübingen","true","false","2611.795000000624"
"","html-voicekey-response","93","559597","0.0-4.89-0.89","a8oa198p59h6p7d","{""user_agent"":""Mozilla/5.0 (Macintosh; Intel Mac OS X 10_14_4) AppleWebKit/537.36 (KHTML, like Gecko) Chrome/74.0.3729.169 Safari/537.36"",""on_chrome"":true,""on_mobile"":false,""language"":""en-US"",""screen_resolution"":[1440,900],""platform"":""MacIntel"",""timezone"":""Europe/Berlin""}","22","3361.4950000026497","","","1559121843870","15","","Nürnberg","[]","Nürnberg","true","false","3936.8350000004284"
"","html-voicekey-response","94","562448","0.0-4.90-0.90","a8oa198p59h6p7d","{""user_agent"":""Mozilla/5.0 (Macintosh; Intel Mac OS X 10_14_4) AppleWebKit/537.36 (KHTML, like Gecko) Chrome/74.0.3729.169 Safari/537.36"",""on_chrome"":true,""on_mobile"":false,""language"":""en-US"",""screen_resolution"":[1440,900],""platform"":""MacIntel"",""timezone"":""Europe/Berlin""}","22","1688.1150000025286","","","1559121848409","21","","Konstanz","[]","Konstanz","true","false","2247.510000001057"
"","html-voicekey-response","95","571798","0.0-4.91-0.91","a8oa198p59h6p7d","{""user_agent"":""Mozilla/5.0 (Macintosh; Intel Mac OS X 10_14_4) AppleWebKit/537.36 (KHTML, like Gecko) Chrome/74.0.3729.169 Safari/537.36"",""on_chrome"":true,""on_mobile"":false,""language"":""en-US"",""screen_resolution"":[1440,900],""platform"":""MacIntel"",""timezone"":""Europe/Berlin""}","22","4820.470000000414","","","1559121851261","25","","","[]","Osnabrück","false","false","5345.48000000359"
"","html-voicekey-response","96","579743","0.0-4.92-0.92","a8oa198p59h6p7d","{""user_agent"":""Mozilla/5.0 (Macintosh; Intel Mac OS X 10_14_4) AppleWebKit/537.36 (KHTML, like Gecko) Chrome/74.0.3729.169 Safari/537.36"",""on_chrome"":true,""on_mobile"":false,""language"":""en-US"",""screen_resolution"":[1440,900],""platform"":""MacIntel"",""timezone"":""Europe/Berlin""}","22","3147.899999998021","","","1559121860611","18","","","[]","Forchheim","false","false","3940.989999999176"
"","html-voicekey-response","97","583551","0.0-4.93-0.93","a8oa198p59h6p7d","{""user_agent"":""Mozilla/5.0 (Macintosh; Intel Mac OS X 10_14_4) AppleWebKit/537.36 (KHTML, like Gecko) Chrome/74.0.3729.169 Safari/537.36"",""on_chrome"":true,""on_mobile"":false,""language"":""en-US"",""screen_resolution"":[1440,900],""platform"":""MacIntel"",""timezone"":""Europe/Berlin""}","22","2503.689999999339","","","1559121868555","5","","Aachen","[]","Aachen","true","false","3204.2099999998463"
"","html-voicekey-response","98","589518","0.0-4.94-0.94","a8oa198p59h6p7d","{""user_agent"":""Mozilla/5.0 (Macintosh; Intel Mac OS X 10_14_4) AppleWebKit/537.36 (KHTML, like Gecko) Chrome/74.0.3729.169 Safari/537.36"",""on_chrome"":true,""on_mobile"":false,""language"":""en-US"",""screen_resolution"":[1440,900],""platform"":""MacIntel"",""timezone"":""Europe/Berlin""}","22","4288.375000001723","","","1559121872363","15","","Nürnberg","[]","Nürnberg","true","false","5363.350000003236"
"","html-voicekey-response","99","599736","0.0-4.95-0.95","a8oa198p59h6p7d","{""user_agent"":""Mozilla/5.0 (Macintosh; Intel Mac OS X 10_14_4) AppleWebKit/537.36 (KHTML, like Gecko) Chrome/74.0.3729.169 Safari/537.36"",""on_chrome"":true,""on_mobile"":false,""language"":""en-US"",""screen_resolution"":[1440,900],""platform"":""MacIntel"",""timezone"":""Europe/Berlin""}","22","5504.270000002905","","","1559121878330","4","","","[]","Würzburg","false","false","6213.075000003213"
"","html-voicekey-response","100","608378","0.0-4.96-0.96","a8oa198p59h6p7d","{""user_agent"":""Mozilla/5.0 (Macintosh; Intel Mac OS X 10_14_4) AppleWebKit/537.36 (KHTML, like Gecko) Chrome/74.0.3729.169 Safari/537.36"",""on_chrome"":true,""on_mobile"":false,""language"":""en-US"",""screen_resolution"":[1440,900],""platform"":""MacIntel"",""timezone"":""Europe/Berlin""}","22","3896.7300000020537","","","1559121888548","26","","","[]","Freiburg","false","false","4639.0749999991385"
"","html-voicekey-response","101","612589","0.0-4.97-0.97","a8oa198p59h6p7d","{""user_agent"":""Mozilla/5.0 (Macintosh; Intel Mac OS X 10_14_4) AppleWebKit/537.36 (KHTML, like Gecko) Chrome/74.0.3729.169 Safari/537.36"",""on_chrome"":true,""on_mobile"":false,""language"":""en-US"",""screen_resolution"":[1440,900],""platform"":""MacIntel"",""timezone"":""Europe/Berlin""}","22","3188.0250000011642","","","1559121897190","7","","Erfurt","[]","Erfurt","true","false","3607.7949999999255"
"","html-voicekey-response","102","621422","0.0-4.98-0.98","a8oa198p59h6p7d","{""user_agent"":""Mozilla/5.0 (Macintosh; Intel Mac OS X 10_14_4) AppleWebKit/537.36 (KHTML, like Gecko) Chrome/74.0.3729.169 Safari/537.36"",""on_chrome"":true,""on_mobile"":false,""language"":""en-US"",""screen_resolution"":[1440,900],""platform"":""MacIntel"",""timezone"":""Europe/Berlin""}","22","4071.419999998156","","","1559121901402","25","","","[]","Osnabrück","false","false","4829.275000000023"
"","html-voicekey-response","103","625084","0.0-4.99-0.99","a8oa198p59h6p7d","{""user_agent"":""Mozilla/5.0 (Macintosh; Intel Mac OS X 10_14_4) AppleWebKit/537.36 (KHTML, like Gecko) Chrome/74.0.3729.169 Safari/537.36"",""on_chrome"":true,""on_mobile"":false,""language"":""en-US"",""screen_resolution"":[1440,900],""platform"":""MacIntel"",""timezone"":""Europe/Berlin""}","22","1987.2150000027382","","","1559121910235","15","","Nürnberg","[]","Nürnberg","true","false","3056.5500000012107"
"","html-voicekey-response","104","631767","0.0-4.100-0.100","a8oa198p59h6p7d","{""user_agent"":""Mozilla/5.0 (Macintosh; Intel Mac OS X 10_14_4) AppleWebKit/537.36 (KHTML, like Gecko) Chrome/74.0.3729.169 Safari/537.36"",""on_chrome"":true,""on_mobile"":false,""language"":""en-US"",""screen_resolution"":[1440,900],""platform"":""MacIntel"",""timezone"":""Europe/Berlin""}","22","4603.9300000028215","","","1559121913897","27","","Tübingen","[]","Tübingen","true","false","6079.5800000014715"
"","html-voicekey-response","105","641791","0.0-4.101-0.101","a8oa198p59h6p7d","{""user_agent"":""Mozilla/5.0 (Macintosh; Intel Mac OS X 10_14_4) AppleWebKit/537.36 (KHTML, like Gecko) Chrome/74.0.3729.169 Safari/537.36"",""on_chrome"":true,""on_mobile"":false,""language"":""en-US"",""screen_resolution"":[1440,900],""platform"":""MacIntel"",""timezone"":""Europe/Berlin""}","22","4903.589999999711","","","1559121920580","18","","","[]","Forchheim","false","false","6019.350000002305"
"","html-voicekey-response","106","648282","0.0-4.102-0.102","a8oa198p59h6p7d","{""user_agent"":""Mozilla/5.0 (Macintosh; Intel Mac OS X 10_14_4) AppleWebKit/537.36 (KHTML, like Gecko) Chrome/74.0.3729.169 Safari/537.36"",""on_chrome"":true,""on_mobile"":false,""language"":""en-US"",""screen_resolution"":[1440,900],""platform"":""MacIntel"",""timezone"":""Europe/Berlin""}","22","5352.980000001238","","","1559121930604","21","","Konstanz","[]","Konstanz","true","false","5886.7949999985285"
"","html-voicekey-response","107","660482","0.0-4.103-0.103","a8oa198p59h6p7d","{""user_agent"":""Mozilla/5.0 (Macintosh; Intel Mac OS X 10_14_4) AppleWebKit/537.36 (KHTML, like Gecko) Chrome/74.0.3729.169 Safari/537.36"",""on_chrome"":true,""on_mobile"":false,""language"":""en-US"",""screen_resolution"":[1440,900],""platform"":""MacIntel"",""timezone"":""Europe/Berlin""}","22","6887.560000000964","","","1559121937094","22","","","[]","Bamberg","false","false","8196.239999997546"
"","html-voicekey-response","108","671956","0.0-4.104-0.104","a8oa198p59h6p7d","{""user_agent"":""Mozilla/5.0 (Macintosh; Intel Mac OS X 10_14_4) AppleWebKit/537.36 (KHTML, like Gecko) Chrome/74.0.3729.169 Safari/537.36"",""on_chrome"":true,""on_mobile"":false,""language"":""en-US"",""screen_resolution"":[1440,900],""platform"":""MacIntel"",""timezone"":""Europe/Berlin""}","22","6543.050000001886","","","1559121949295","25","","","[]","Osnabrück","false","false","7468.950000002282"
"","html-voicekey-response","109","681249","0.0-4.105-0.105","a8oa198p59h6p7d","{""user_agent"":""Mozilla/5.0 (Macintosh; Intel Mac OS X 10_14_4) AppleWebKit/537.36 (KHTML, like Gecko) Chrome/74.0.3729.169 Safari/537.36"",""on_chrome"":true,""on_mobile"":false,""language"":""en-US"",""screen_resolution"":[1440,900],""platform"":""MacIntel"",""timezone"":""Europe/Berlin""}","22","4247.235000000661","","","1559121960769","26","","","[]","Freiburg","false","false","5288.679999997839"
"","html-voicekey-response","110","690875","0.0-4.106-0.106","a8oa198p59h6p7d","{""user_agent"":""Mozilla/5.0 (Macintosh; Intel Mac OS X 10_14_4) AppleWebKit/537.36 (KHTML, like Gecko) Chrome/74.0.3729.169 Safari/537.36"",""on_chrome"":true,""on_mobile"":false,""language"":""en-US"",""screen_resolution"":[1440,900],""platform"":""MacIntel"",""timezone"":""Europe/Berlin""}","22","4779.540000001178","","","1559121970062","18","","","[]","Forchheim","false","false","5621.644999999204"
"","html-voicekey-response","111","694315","0.0-4.107-0.107","a8oa198p59h6p7d","{""user_agent"":""Mozilla/5.0 (Macintosh; Intel Mac OS X 10_14_4) AppleWebKit/537.36 (KHTML, like Gecko) Chrome/74.0.3729.169 Safari/537.36"",""on_chrome"":true,""on_mobile"":false,""language"":""en-US"",""screen_resolution"":[1440,900],""platform"":""MacIntel"",""timezone"":""Europe/Berlin""}","22","2003.5200000001118","","","1559121979688","15","","Nürnberg","[]","Nürnberg","true","false","2836.095000002417"
"","html-voicekey-response","112","698281","0.0-4.108-0.108","a8oa198p59h6p7d","{""user_agent"":""Mozilla/5.0 (Macintosh; Intel Mac OS X 10_14_4) AppleWebKit/537.36 (KHTML, like Gecko) Chrome/74.0.3729.169 Safari/537.36"",""on_chrome"":true,""on_mobile"":false,""language"":""en-US"",""screen_resolution"":[1440,900],""platform"":""MacIntel"",""timezone"":""Europe/Berlin""}","22","2653.019999999646","","","1559121983128","21","","Konstanz","[]","Konstanz","true","false","3361.65500000061"
"","html-voicekey-response","113","708931","0.0-4.109-0.109","a8oa198p59h6p7d","{""user_agent"":""Mozilla/5.0 (Macintosh; Intel Mac OS X 10_14_4) AppleWebKit/537.36 (KHTML, like Gecko) Chrome/74.0.3729.169 Safari/537.36"",""on_chrome"":true,""on_mobile"":false,""language"":""en-US"",""screen_resolution"":[1440,900],""platform"":""MacIntel"",""timezone"":""Europe/Berlin""}","22","5153.804999999795","","","1559121987094","25","","","[]","Osnabrück","false","false","6645.219999998575"
"","html-voicekey-response","114","711326","0.0-4.110-0.110","a8oa198p59h6p7d","{""user_agent"":""Mozilla/5.0 (Macintosh; Intel Mac OS X 10_14_4) AppleWebKit/537.36 (KHTML, like Gecko) Chrome/74.0.3729.169 Safari/537.36"",""on_chrome"":true,""on_mobile"":false,""language"":""en-US"",""screen_resolution"":[1440,900],""platform"":""MacIntel"",""timezone"":""Europe/Berlin""}","22","1381.9149999997812","","","1559121997745","27","","Tübingen","[]","Tübingen","true","false","1790.3200000000652"
"","html-voicekey-response","115","723477","0.0-4.111-0.111","a8oa198p59h6p7d","{""user_agent"":""Mozilla/5.0 (Macintosh; Intel Mac OS X 10_14_4) AppleWebKit/537.36 (KHTML, like Gecko) Chrome/74.0.3729.169 Safari/537.36"",""on_chrome"":true,""on_mobile"":false,""language"":""en-US"",""screen_resolution"":[1440,900],""platform"":""MacIntel"",""timezone"":""Europe/Berlin""}","22","7002.8249999976015","","","1559122000140","22","","","[]","Bamberg","false","false","8144.57499999844"
"","html-voicekey-response","116","726686","0.0-4.112-0.112","a8oa198p59h6p7d","{""user_agent"":""Mozilla/5.0 (Macintosh; Intel Mac OS X 10_14_4) AppleWebKit/537.36 (KHTML, like Gecko) Chrome/74.0.3729.169 Safari/537.36"",""on_chrome"":true,""on_mobile"":false,""language"":""en-US"",""screen_resolution"":[1440,900],""platform"":""MacIntel"",""timezone"":""Europe/Berlin""}","22","2145.8350000011037","","","1559122012291","26","","Freiburg","[]","Freiburg","true","false","2604.429999999469"
"","html-voicekey-response","117","731739","0.0-4.113-0.113","a8oa198p59h6p7d","{""user_agent"":""Mozilla/5.0 (Macintosh; Intel Mac OS X 10_14_4) AppleWebKit/537.36 (KHTML, like Gecko) Chrome/74.0.3729.169 Safari/537.36"",""on_chrome"":true,""on_mobile"":false,""language"":""en-US"",""screen_resolution"":[1440,900],""platform"":""MacIntel"",""timezone"":""Europe/Berlin""}","22","3936.9599999971456","","","1559122015499","11","","Alfeld","[]","Alfeld","true","false","4446.23499999952"
"","html-voicekey-response","118","734210","0.0-4.114-0.114","a8oa198p59h6p7d","{""user_agent"":""Mozilla/5.0 (Macintosh; Intel Mac OS X 10_14_4) AppleWebKit/537.36 (KHTML, like Gecko) Chrome/74.0.3729.169 Safari/537.36"",""on_chrome"":true,""on_mobile"":false,""language"":""en-US"",""screen_resolution"":[1440,900],""platform"":""MacIntel"",""timezone"":""Europe/Berlin""}","22","100","","","1559122020553","6","","Dresden","[]","Dresden","true","false","1866.6500000000233"
"","html-voicekey-response","119","746029","0.0-4.115-0.115","a8oa198p59h6p7d","{""user_agent"":""Mozilla/5.0 (Macintosh; Intel Mac OS X 10_14_4) AppleWebKit/537.36 (KHTML, like Gecko) Chrome/74.0.3729.169 Safari/537.36"",""on_chrome"":true,""on_mobile"":false,""language"":""en-US"",""screen_resolution"":[1440,900],""platform"":""MacIntel"",""timezone"":""Europe/Berlin""}","22","6484.7250000000695","","","1559122023025","25","","","[]","Osnabrück","false","false","7810.9650000005495"
"","html-voicekey-response","120","755303","0.0-4.116-0.116","a8oa198p59h6p7d","{""user_agent"":""Mozilla/5.0 (Macintosh; Intel Mac OS X 10_14_4) AppleWebKit/537.36 (KHTML, like Gecko) Chrome/74.0.3729.169 Safari/537.36"",""on_chrome"":true,""on_mobile"":false,""language"":""en-US"",""screen_resolution"":[1440,900],""platform"":""MacIntel"",""timezone"":""Europe/Berlin""}","22","4740.565000001667","","","1559122034844","18","","","[]","Forchheim","false","false","5266.204999999842"
"","html-voicekey-response","121","761307","0.0-4.117-0.117","a8oa198p59h6p7d","{""user_agent"":""Mozilla/5.0 (Macintosh; Intel Mac OS X 10_14_4) AppleWebKit/537.36 (KHTML, like Gecko) Chrome/74.0.3729.169 Safari/537.36"",""on_chrome"":true,""on_mobile"":false,""language"":""en-US"",""screen_resolution"":[1440,900],""platform"":""MacIntel"",""timezone"":""Europe/Berlin""}","22","4873.525000000698","","","1559122044118","15","","Nürnberg","[]","Nürnberg","true","false","5398.610000000102"
"","html-voicekey-response","122","769748","0.0-4.118-0.118","a8oa198p59h6p7d","{""user_agent"":""Mozilla/5.0 (Macintosh; Intel Mac OS X 10_14_4) AppleWebKit/537.36 (KHTML, like Gecko) Chrome/74.0.3729.169 Safari/537.36"",""on_chrome"":true,""on_mobile"":false,""language"":""en-US"",""screen_resolution"":[1440,900],""platform"":""MacIntel"",""timezone"":""Europe/Berlin""}","22","3370.469999999716","","","1559122050121","22","","","[]","Bamberg","false","false","4436.444999999367"
"","html-voicekey-response","123","773683","0.0-4.119-0.119","a8oa198p59h6p7d","{""user_agent"":""Mozilla/5.0 (Macintosh; Intel Mac OS X 10_14_4) AppleWebKit/537.36 (KHTML, like Gecko) Chrome/74.0.3729.169 Safari/537.36"",""on_chrome"":true,""on_mobile"":false,""language"":""en-US"",""screen_resolution"":[1440,900],""platform"":""MacIntel"",""timezone"":""Europe/Berlin""}","22","2686.215000003204","","","1559122058562","4","","Würzburg","[]","Würzburg","true","false","3328.5350000004983"
"","html-voicekey-response","124","779461","0.0-4.120-0.120","a8oa198p59h6p7d","{""user_agent"":""Mozilla/5.0 (Macintosh; Intel Mac OS X 10_14_4) AppleWebKit/537.36 (KHTML, like Gecko) Chrome/74.0.3729.169 Safari/537.36"",""on_chrome"":true,""on_mobile"":false,""language"":""en-US"",""screen_resolution"":[1440,900],""platform"":""MacIntel"",""timezone"":""Europe/Berlin""}","22","4480.7600000002185","","","1559122062497","25","","Osnabrück","[]","Osnabrück","true","false","5172.76000000129"
"","html-voicekey-response","125","792111","0.0-4.121-0.121","a8oa198p59h6p7d","{""user_agent"":""Mozilla/5.0 (Macintosh; Intel Mac OS X 10_14_4) AppleWebKit/537.36 (KHTML, like Gecko) Chrome/74.0.3729.169 Safari/537.36"",""on_chrome"":true,""on_mobile"":false,""language"":""en-US"",""screen_resolution"":[1440,900],""platform"":""MacIntel"",""timezone"":""Europe/Berlin""}","22","7618.495000000554","","","1559122068275","15","","","[]","Nürnberg","false","false","8644.169999999576"
"","html-voicekey-response","126","796138","0.0-4.122-0.122","a8oa198p59h6p7d","{""user_agent"":""Mozilla/5.0 (Macintosh; Intel Mac OS X 10_14_4) AppleWebKit/537.36 (KHTML, like Gecko) Chrome/74.0.3729.169 Safari/537.36"",""on_chrome"":true,""on_mobile"":false,""language"":""en-US"",""screen_resolution"":[1440,900],""platform"":""MacIntel"",""timezone"":""Europe/Berlin""}","22","2862.9099999977975","","","1559122080926","21","","Konstanz","[]","Konstanz","true","false","3421.0800000000745"
"","html-voicekey-response","127","805042","0.0-4.123-0.123","a8oa198p59h6p7d","{""user_agent"":""Mozilla/5.0 (Macintosh; Intel Mac OS X 10_14_4) AppleWebKit/537.36 (KHTML, like Gecko) Chrome/74.0.3729.169 Safari/537.36"",""on_chrome"":true,""on_mobile"":false,""language"":""en-US"",""screen_resolution"":[1440,900],""platform"":""MacIntel"",""timezone"":""Europe/Berlin""}","22","7836.645000001043","","","1559122084952","25","","Osnabrück","[]","Osnabrück","true","false","8296.60000000149"
"","html-voicekey-response","128","809242","0.0-4.124-0.124","a8oa198p59h6p7d","{""user_agent"":""Mozilla/5.0 (Macintosh; Intel Mac OS X 10_14_4) AppleWebKit/537.36 (KHTML, like Gecko) Chrome/74.0.3729.169 Safari/537.36"",""on_chrome"":true,""on_mobile"":false,""language"":""en-US"",""screen_resolution"":[1440,900],""platform"":""MacIntel"",""timezone"":""Europe/Berlin""}","22","3119.30000000014","","","1559122093856","15","","Nürnberg","[]","Nürnberg","true","false","3595.2350000006845"
"","html-voicekey-response","129","814157","0.0-4.125-0.125","a8oa198p59h6p7d","{""user_agent"":""Mozilla/5.0 (Macintosh; Intel Mac OS X 10_14_4) AppleWebKit/537.36 (KHTML, like Gecko) Chrome/74.0.3729.169 Safari/537.36"",""on_chrome"":true,""on_mobile"":false,""language"":""en-US"",""screen_resolution"":[1440,900],""platform"":""MacIntel"",""timezone"":""Europe/Berlin""}","22","3835.9650000000606","","","1559122098057","18","","Forchheim","[]","Forchheim","true","false","4309.760000000009"
"","html-voicekey-response","130","819316","0.0-4.126-0.126","a8oa198p59h6p7d","{""user_agent"":""Mozilla/5.0 (Macintosh; Intel Mac OS X 10_14_4) AppleWebKit/537.36 (KHTML, like Gecko) Chrome/74.0.3729.169 Safari/537.36"",""on_chrome"":true,""on_mobile"":false,""language"":""en-US"",""screen_resolution"":[1440,900],""platform"":""MacIntel"",""timezone"":""Europe/Berlin""}","22","4103.3850000002185","","","1559122102972","26","","Freiburg","[]","Freiburg","true","false","4552.73500000115"
"","html-voicekey-response","131","822149","0.0-4.127-0.127","a8oa198p59h6p7d","{""user_agent"":""Mozilla/5.0 (Macintosh; Intel Mac OS X 10_14_4) AppleWebKit/537.36 (KHTML, like Gecko) Chrome/74.0.3729.169 Safari/537.36"",""on_chrome"":true,""on_mobile"":false,""language"":""en-US"",""screen_resolution"":[1440,900],""platform"":""MacIntel"",""timezone"":""Europe/Berlin""}","22","1668.6949999982958","","","1559122108130","9","","München","[]","München","true","false","2227.869999998831"
"","html-voicekey-response","132","831884","0.0-4.128-0.128","a8oa198p59h6p7d","{""user_agent"":""Mozilla/5.0 (Macintosh; Intel Mac OS X 10_14_4) AppleWebKit/537.36 (KHTML, like Gecko) Chrome/74.0.3729.169 Safari/537.36"",""on_chrome"":true,""on_mobile"":false,""language"":""en-US"",""screen_resolution"":[1440,900],""platform"":""MacIntel"",""timezone"":""Europe/Berlin""}","22","8668.534999998728","","","1559122110963","25","","Osnabrück","[]","Osnabrück","true","false","9128.290000000503"
"","html-voicekey-response","133","836977","0.0-4.129-0.129","a8oa198p59h6p7d","{""user_agent"":""Mozilla/5.0 (Macintosh; Intel Mac OS X 10_14_4) AppleWebKit/537.36 (KHTML, like Gecko) Chrome/74.0.3729.169 Safari/537.36"",""on_chrome"":true,""on_mobile"":false,""language"":""en-US"",""screen_resolution"":[1440,900],""platform"":""MacIntel"",""timezone"":""Europe/Berlin""}","22","2027.520000001276","","","1559122120699","10","","Heidelberg","[]","Heidelberg","true","false","4486.5850000024075"
"","html-voicekey-response","134","849210","0.0-4.130-0.130","a8oa198p59h6p7d","{""user_agent"":""Mozilla/5.0 (Macintosh; Intel Mac OS X 10_14_4) AppleWebKit/537.36 (KHTML, like Gecko) Chrome/74.0.3729.169 Safari/537.36"",""on_chrome"":true,""on_mobile"":false,""language"":""en-US"",""screen_resolution"":[1440,900],""platform"":""MacIntel"",""timezone"":""Europe/Berlin""}","22","100","","","1559122125792","18","","","[]","Forchheim","false","false","8227.289999998873"
"","html-voicekey-response","135","854221","0.0-4.131-0.131","a8oa198p59h6p7d","{""user_agent"":""Mozilla/5.0 (Macintosh; Intel Mac OS X 10_14_4) AppleWebKit/537.36 (KHTML, like Gecko) Chrome/74.0.3729.169 Safari/537.36"",""on_chrome"":true,""on_mobile"":false,""language"":""en-US"",""screen_resolution"":[1440,900],""platform"":""MacIntel"",""timezone"":""Europe/Berlin""}","22","3962.1449999994134","","","1559122138025","15","","Nürnberg","[]","Nürnberg","true","false","4404.894999999669"
"","html-voicekey-response","136","863923","0.0-4.132-0.132","a8oa198p59h6p7d","{""user_agent"":""Mozilla/5.0 (Macintosh; Intel Mac OS X 10_14_4) AppleWebKit/537.36 (KHTML, like Gecko) Chrome/74.0.3729.169 Safari/537.36"",""on_chrome"":true,""on_mobile"":false,""language"":""en-US"",""screen_resolution"":[1440,900],""platform"":""MacIntel"",""timezone"":""Europe/Berlin""}","22","4952.375000002421","","","1559122143036","25","","","[]","Osnabrück","false","false","5694.970000000438"
"","html-voicekey-response","137","873865","0.0-4.133-0.133","a8oa198p59h6p7d","{""user_agent"":""Mozilla/5.0 (Macintosh; Intel Mac OS X 10_14_4) AppleWebKit/537.36 (KHTML, like Gecko) Chrome/74.0.3729.169 Safari/537.36"",""on_chrome"":true,""on_mobile"":false,""language"":""en-US"",""screen_resolution"":[1440,900],""platform"":""MacIntel"",""timezone"":""Europe/Berlin""}","22","4995.199999999348","","","1559122152737","22","","","[]","Bamberg","false","false","5936.154999999446"
"","html-voicekey-response","138","884138","0.0-4.134-0.134","a8oa198p59h6p7d","{""user_agent"":""Mozilla/5.0 (Macintosh; Intel Mac OS X 10_14_4) AppleWebKit/537.36 (KHTML, like Gecko) Chrome/74.0.3729.169 Safari/537.36"",""on_chrome"":true,""on_mobile"":false,""language"":""en-US"",""screen_resolution"":[1440,900],""platform"":""MacIntel"",""timezone"":""Europe/Berlin""}","22","9341.345000002393","","","1559122162680","25","","Osnabrück","[]","Osnabrück","true","false","9665.650000002584"
