"value","trial_type","trial_index","time_elapsed","internal_node_id","subject","browser_info","participant_number","rt","responses","view_history","presentation_start_time","id","text","response","keypresses","answer","correct","study","experimenter_rt"
"","call-function","0","5","0.0-0.0","cxa196gxj2df0nl","{""user_agent"":""Mozilla/5.0 (Macintosh; Intel Mac OS X 10_14_4) AppleWebKit/537.36 (KHTML, like Gecko) Chrome/74.0.3729.169 Safari/537.36"",""on_chrome"":true,""on_mobile"":false,""language"":""en-US"",""screen_resolution"":[1440,900],""platform"":""MacIntel"",""timezone"":""Europe/Berlin""}","23","","","","","","","","","","","",""
"","survey-text","1","9889","0.0-1.0","cxa196gxj2df0nl","{""user_agent"":""Mozilla/5.0 (Macintosh; Intel Mac OS X 10_14_4) AppleWebKit/537.36 (KHTML, like Gecko) Chrome/74.0.3729.169 Safari/537.36"",""on_chrome"":true,""on_mobile"":false,""language"":""en-US"",""screen_resolution"":[1440,900],""platform"":""MacIntel"",""timezone"":""Europe/Berlin""}","23","9882","{""Q0"":""23""}","","","","","","","","","",""
"","instructions","2","111342","0.0-2.0","cxa196gxj2df0nl","{""user_agent"":""Mozilla/5.0 (Macintosh; Intel Mac OS X 10_14_4) AppleWebKit/537.36 (KHTML, like Gecko) Chrome/74.0.3729.169 Safari/537.36"",""on_chrome"":true,""on_mobile"":false,""language"":""en-US"",""screen_resolution"":[1440,900],""platform"":""MacIntel"",""timezone"":""Europe/Berlin""}","23","101451","","[{""page_index"":0,""viewing_time"":101451}]","","","","","","","","",""
"","call-function","3","111342","0.0-3.0","cxa196gxj2df0nl","{""user_agent"":""Mozilla/5.0 (Macintosh; Intel Mac OS X 10_14_4) AppleWebKit/537.36 (KHTML, like Gecko) Chrome/74.0.3729.169 Safari/537.36"",""on_chrome"":true,""on_mobile"":false,""language"":""en-US"",""screen_resolution"":[1440,900],""platform"":""MacIntel"",""timezone"":""Europe/Berlin""}","23","","","","","","","","","","","",""
"","html-voicekey-response","4","114348","0.0-4.0-0.0","cxa196gxj2df0nl","{""user_agent"":""Mozilla/5.0 (Macintosh; Intel Mac OS X 10_14_4) AppleWebKit/537.36 (KHTML, like Gecko) Chrome/74.0.3729.169 Safari/537.36"",""on_chrome"":true,""on_mobile"":false,""language"":""en-US"",""screen_resolution"":[1440,900],""platform"":""MacIntel"",""timezone"":""Europe/Berlin""}","23","100","","","1559126919210","1","","Magdeburg","[]","Magdeburg","true","true","2401.9850000004226"
"","html-voicekey-response","5","120197","0.0-4.1-0.1","cxa196gxj2df0nl","{""user_agent"":""Mozilla/5.0 (Macintosh; Intel Mac OS X 10_14_4) AppleWebKit/537.36 (KHTML, like Gecko) Chrome/74.0.3729.169 Safari/537.36"",""on_chrome"":true,""on_mobile"":false,""language"":""en-US"",""screen_resolution"":[1440,900],""platform"":""MacIntel"",""timezone"":""Europe/Berlin""}","23","4416.904999999888","","","1559126922218","1","","Magdeburg","[]","Magdeburg","true","false","5242.859999998473"
"","html-voicekey-response","6","123179","0.0-4.2-0.2","cxa196gxj2df0nl","{""user_agent"":""Mozilla/5.0 (Macintosh; Intel Mac OS X 10_14_4) AppleWebKit/537.36 (KHTML, like Gecko) Chrome/74.0.3729.169 Safari/537.36"",""on_chrome"":true,""on_mobile"":false,""language"":""en-US"",""screen_resolution"":[1440,900],""platform"":""MacIntel"",""timezone"":""Europe/Berlin""}","23","438.89999999903955","","","1559126928064","2","","Berlin","[]","Berlin","true","true","2379.669999998441"
"","html-voicekey-response","7","128669","0.0-4.3-0.3","cxa196gxj2df0nl","{""user_agent"":""Mozilla/5.0 (Macintosh; Intel Mac OS X 10_14_4) AppleWebKit/537.36 (KHTML, like Gecko) Chrome/74.0.3729.169 Safari/537.36"",""on_chrome"":true,""on_mobile"":false,""language"":""en-US"",""screen_resolution"":[1440,900],""platform"":""MacIntel"",""timezone"":""Europe/Berlin""}","23","3263.7550000016113","","","1559126931046","2","","Berlin","[]","Berlin","true","false","4888.315000000148"
"","html-voicekey-response","8","132604","0.0-4.4-0.4","cxa196gxj2df0nl","{""user_agent"":""Mozilla/5.0 (Macintosh; Intel Mac OS X 10_14_4) AppleWebKit/537.36 (KHTML, like Gecko) Chrome/74.0.3729.169 Safari/537.36"",""on_chrome"":true,""on_mobile"":false,""language"":""en-US"",""screen_resolution"":[1440,900],""platform"":""MacIntel"",""timezone"":""Europe/Berlin""}","23","1722.9849999983621","","","1559126936537","3","","Ingolstadt","[]","Ingolstadt","true","true","3332.6099999976577"
"","html-voicekey-response","9","140590","0.0-4.5-0.5","cxa196gxj2df0nl","{""user_agent"":""Mozilla/5.0 (Macintosh; Intel Mac OS X 10_14_4) AppleWebKit/537.36 (KHTML, like Gecko) Chrome/74.0.3729.169 Safari/537.36"",""on_chrome"":true,""on_mobile"":false,""language"":""en-US"",""screen_resolution"":[1440,900],""platform"":""MacIntel"",""timezone"":""Europe/Berlin""}","23","2188.2249999997207","","","1559126940472","4","","Würzburg","[]","Würzburg","true","true","7383.620000000519"
"","html-voicekey-response","10","144357","0.0-4.6-0.6","cxa196gxj2df0nl","{""user_agent"":""Mozilla/5.0 (Macintosh; Intel Mac OS X 10_14_4) AppleWebKit/537.36 (KHTML, like Gecko) Chrome/74.0.3729.169 Safari/537.36"",""on_chrome"":true,""on_mobile"":false,""language"":""en-US"",""screen_resolution"":[1440,900],""platform"":""MacIntel"",""timezone"":""Europe/Berlin""}","23","189.70000000065775","","","1559126948458","3","","Ingolstadt","[]","Ingolstadt","true","false","3164.8949999980687"
"","html-voicekey-response","11","147516","0.0-4.7-0.7","cxa196gxj2df0nl","{""user_agent"":""Mozilla/5.0 (Macintosh; Intel Mac OS X 10_14_4) AppleWebKit/537.36 (KHTML, like Gecko) Chrome/74.0.3729.169 Safari/537.36"",""on_chrome"":true,""on_mobile"":false,""language"":""en-US"",""screen_resolution"":[1440,900],""platform"":""MacIntel"",""timezone"":""Europe/Berlin""}","23","1763.7300000004238","","","1559126952225","4","","Würzburg","[]","Würzburg","true","false","2555.130000000645"
"","html-voicekey-response","12","150599","0.0-4.8-0.8","cxa196gxj2df0nl","{""user_agent"":""Mozilla/5.0 (Macintosh; Intel Mac OS X 10_14_4) AppleWebKit/537.36 (KHTML, like Gecko) Chrome/74.0.3729.169 Safari/537.36"",""on_chrome"":true,""on_mobile"":false,""language"":""en-US"",""screen_resolution"":[1440,900],""platform"":""MacIntel"",""timezone"":""Europe/Berlin""}","23","1805.6850000010222","","","1559126955383","5","","Aachen","[]","Aachen","true","true","2481.2150000034308"
"","html-voicekey-response","13","153882","0.0-4.9-0.9","cxa196gxj2df0nl","{""user_agent"":""Mozilla/5.0 (Macintosh; Intel Mac OS X 10_14_4) AppleWebKit/537.36 (KHTML, like Gecko) Chrome/74.0.3729.169 Safari/537.36"",""on_chrome"":true,""on_mobile"":false,""language"":""en-US"",""screen_resolution"":[1440,900],""platform"":""MacIntel"",""timezone"":""Europe/Berlin""}","23","1588.3650000012772","","","1559126958466","6","","Dresden","[]","Dresden","true","true","2680.800000001909"
"","html-voicekey-response","14","157107","0.0-4.10-0.10","cxa196gxj2df0nl","{""user_agent"":""Mozilla/5.0 (Macintosh; Intel Mac OS X 10_14_4) AppleWebKit/537.36 (KHTML, like Gecko) Chrome/74.0.3729.169 Safari/537.36"",""on_chrome"":true,""on_mobile"":false,""language"":""en-US"",""screen_resolution"":[1440,900],""platform"":""MacIntel"",""timezone"":""Europe/Berlin""}","23","2055.974999997334","","","1559126961749","5","","Aachen","[]","Aachen","true","false","2623.169999998936"
"","html-voicekey-response","15","160374","0.0-4.11-0.11","cxa196gxj2df0nl","{""user_agent"":""Mozilla/5.0 (Macintosh; Intel Mac OS X 10_14_4) AppleWebKit/537.36 (KHTML, like Gecko) Chrome/74.0.3729.169 Safari/537.36"",""on_chrome"":true,""on_mobile"":false,""language"":""en-US"",""screen_resolution"":[1440,900],""platform"":""MacIntel"",""timezone"":""Europe/Berlin""}","23","1622.5850000026462","","","1559126964974","6","","Dresden","[]","Dresden","true","false","2664.7400000001653"
"","html-voicekey-response","16","163040","0.0-4.12-0.12","cxa196gxj2df0nl","{""user_agent"":""Mozilla/5.0 (Macintosh; Intel Mac OS X 10_14_4) AppleWebKit/537.36 (KHTML, like Gecko) Chrome/74.0.3729.169 Safari/537.36"",""on_chrome"":true,""on_mobile"":false,""language"":""en-US"",""screen_resolution"":[1440,900],""platform"":""MacIntel"",""timezone"":""Europe/Berlin""}","23","1188.270000000403","","","1559126968241","1","","Magdeburg","[]","Magdeburg","true","false","2063.559999998688"
"","html-voicekey-response","17","165857","0.0-4.13-0.13","cxa196gxj2df0nl","{""user_agent"":""Mozilla/5.0 (Macintosh; Intel Mac OS X 10_14_4) AppleWebKit/537.36 (KHTML, like Gecko) Chrome/74.0.3729.169 Safari/537.36"",""on_chrome"":true,""on_mobile"":false,""language"":""en-US"",""screen_resolution"":[1440,900],""platform"":""MacIntel"",""timezone"":""Europe/Berlin""}","23","1255.2400000002585","","","1559126970908","2","","Berlin","[]","Berlin","true","false","2213.6950000021898"
"","html-voicekey-response","18","169265","0.0-4.14-0.14","cxa196gxj2df0nl","{""user_agent"":""Mozilla/5.0 (Macintosh; Intel Mac OS X 10_14_4) AppleWebKit/537.36 (KHTML, like Gecko) Chrome/74.0.3729.169 Safari/537.36"",""on_chrome"":true,""on_mobile"":false,""language"":""en-US"",""screen_resolution"":[1440,900],""platform"":""MacIntel"",""timezone"":""Europe/Berlin""}","23","1762.8700000003214","","","1559126973725","7","","Erfurt","[]","Erfurt","true","true","2804.57000000024"
"","html-voicekey-response","19","173465","0.0-4.15-0.15","cxa196gxj2df0nl","{""user_agent"":""Mozilla/5.0 (Macintosh; Intel Mac OS X 10_14_4) AppleWebKit/537.36 (KHTML, like Gecko) Chrome/74.0.3729.169 Safari/537.36"",""on_chrome"":true,""on_mobile"":false,""language"":""en-US"",""screen_resolution"":[1440,900],""platform"":""MacIntel"",""timezone"":""Europe/Berlin""}","23","2289.085000002006","","","1559126977132","8","","Gotha","[]","Gotha","true","true","3597.7400000010675"
"","html-voicekey-response","20","175918","0.0-4.16-0.16","cxa196gxj2df0nl","{""user_agent"":""Mozilla/5.0 (Macintosh; Intel Mac OS X 10_14_4) AppleWebKit/537.36 (KHTML, like Gecko) Chrome/74.0.3729.169 Safari/537.36"",""on_chrome"":true,""on_mobile"":false,""language"":""en-US"",""screen_resolution"":[1440,900],""platform"":""MacIntel"",""timezone"":""Europe/Berlin""}","23","987.9500000004831","","","1559126981333","7","","Erfurt","[]","Erfurt","true","false","1847.4400000013702"
"","html-voicekey-response","21","183938","0.0-4.17-0.17","cxa196gxj2df0nl","{""user_agent"":""Mozilla/5.0 (Macintosh; Intel Mac OS X 10_14_4) AppleWebKit/537.36 (KHTML, like Gecko) Chrome/74.0.3729.169 Safari/537.36"",""on_chrome"":true,""on_mobile"":false,""language"":""en-US"",""screen_resolution"":[1440,900],""platform"":""MacIntel"",""timezone"":""Europe/Berlin""}","23","2776.7450000008744","","","1559126983785","8","","","[]","Gotha","false","false","4018.0700000018987"
"","html-voicekey-response","22","186989","0.0-4.18-0.18","cxa196gxj2df0nl","{""user_agent"":""Mozilla/5.0 (Macintosh; Intel Mac OS X 10_14_4) AppleWebKit/537.36 (KHTML, like Gecko) Chrome/74.0.3729.169 Safari/537.36"",""on_chrome"":true,""on_mobile"":false,""language"":""en-US"",""screen_resolution"":[1440,900],""platform"":""MacIntel"",""timezone"":""Europe/Berlin""}","23","1355.8749999991328","","","1559126991805","9","","München","[]","München","true","true","2448.629999998957"
"","html-voicekey-response","23","191450","0.0-4.19-0.19","cxa196gxj2df0nl","{""user_agent"":""Mozilla/5.0 (Macintosh; Intel Mac OS X 10_14_4) AppleWebKit/537.36 (KHTML, like Gecko) Chrome/74.0.3729.169 Safari/537.36"",""on_chrome"":true,""on_mobile"":false,""language"":""en-US"",""screen_resolution"":[1440,900],""platform"":""MacIntel"",""timezone"":""Europe/Berlin""}","23","2166.234999998624","","","1559126994857","10","","Heidelberg","[]","Heidelberg","true","true","3857.7799999984563"
"","html-voicekey-response","24","193968","0.0-4.20-0.20","cxa196gxj2df0nl","{""user_agent"":""Mozilla/5.0 (Macintosh; Intel Mac OS X 10_14_4) AppleWebKit/537.36 (KHTML, like Gecko) Chrome/74.0.3729.169 Safari/537.36"",""on_chrome"":true,""on_mobile"":false,""language"":""en-US"",""screen_resolution"":[1440,900],""platform"":""MacIntel"",""timezone"":""Europe/Berlin""}","23","989.5650000015215","","","1559126999317","9","","München","[]","München","true","false","1914.7499999999127"
"","html-voicekey-response","25","197754","0.0-4.21-0.21","cxa196gxj2df0nl","{""user_agent"":""Mozilla/5.0 (Macintosh; Intel Mac OS X 10_14_4) AppleWebKit/537.36 (KHTML, like Gecko) Chrome/74.0.3729.169 Safari/537.36"",""on_chrome"":true,""on_mobile"":false,""language"":""en-US"",""screen_resolution"":[1440,900],""platform"":""MacIntel"",""timezone"":""Europe/Berlin""}","23","1938.1849999970932","","","1559127001835","10","","Heidelberg","[]","Heidelberg","true","false","3181.079999998474"
"","html-voicekey-response","26","201573","0.0-4.22-0.22","cxa196gxj2df0nl","{""user_agent"":""Mozilla/5.0 (Macintosh; Intel Mac OS X 10_14_4) AppleWebKit/537.36 (KHTML, like Gecko) Chrome/74.0.3729.169 Safari/537.36"",""on_chrome"":true,""on_mobile"":false,""language"":""en-US"",""screen_resolution"":[1440,900],""platform"":""MacIntel"",""timezone"":""Europe/Berlin""}","23","1792.1649999969582","","","1559127005621","3","","Ingolstadt","[]","Ingolstadt","true","false","3217.114999999467"
"","html-voicekey-response","27","211391","0.0-4.23-0.23","cxa196gxj2df0nl","{""user_agent"":""Mozilla/5.0 (Macintosh; Intel Mac OS X 10_14_4) AppleWebKit/537.36 (KHTML, like Gecko) Chrome/74.0.3729.169 Safari/537.36"",""on_chrome"":true,""on_mobile"":false,""language"":""en-US"",""screen_resolution"":[1440,900],""platform"":""MacIntel"",""timezone"":""Europe/Berlin""}","23","5254.74500000003","","","1559127009441","4","","","[]","Würzburg","false","false","5814.115000001038"
"","html-voicekey-response","28","214056","0.0-4.24-0.24","cxa196gxj2df0nl","{""user_agent"":""Mozilla/5.0 (Macintosh; Intel Mac OS X 10_14_4) AppleWebKit/537.36 (KHTML, like Gecko) Chrome/74.0.3729.169 Safari/537.36"",""on_chrome"":true,""on_mobile"":false,""language"":""en-US"",""screen_resolution"":[1440,900],""platform"":""MacIntel"",""timezone"":""Europe/Berlin""}","23","1471.3850000024017","","","1559127019258","5","","Aachen","[]","Aachen","true","false","2062.2650000004796"
"","html-voicekey-response","29","216923","0.0-4.25-0.25","cxa196gxj2df0nl","{""user_agent"":""Mozilla/5.0 (Macintosh; Intel Mac OS X 10_14_4) AppleWebKit/537.36 (KHTML, like Gecko) Chrome/74.0.3729.169 Safari/537.36"",""on_chrome"":true,""on_mobile"":false,""language"":""en-US"",""screen_resolution"":[1440,900],""platform"":""MacIntel"",""timezone"":""Europe/Berlin""}","23","1505.9100000015228","","","1559127021923","6","","Dresden","[]","Dresden","true","false","2264.484999999695"
"","html-voicekey-response","30","220481","0.0-4.26-0.26","cxa196gxj2df0nl","{""user_agent"":""Mozilla/5.0 (Macintosh; Intel Mac OS X 10_14_4) AppleWebKit/537.36 (KHTML, like Gecko) Chrome/74.0.3729.169 Safari/537.36"",""on_chrome"":true,""on_mobile"":false,""language"":""en-US"",""screen_resolution"":[1440,900],""platform"":""MacIntel"",""timezone"":""Europe/Berlin""}","23","1921.4500000033063","","","1559127024791","11","","Alfeld","[]","Alfeld","true","true","2954.765000002226"
"","html-voicekey-response","31","223314","0.0-4.27-0.27","cxa196gxj2df0nl","{""user_agent"":""Mozilla/5.0 (Macintosh; Intel Mac OS X 10_14_4) AppleWebKit/537.36 (KHTML, like Gecko) Chrome/74.0.3729.169 Safari/537.36"",""on_chrome"":true,""on_mobile"":false,""language"":""en-US"",""screen_resolution"":[1440,900],""platform"":""MacIntel"",""timezone"":""Europe/Berlin""}","23","1319.5549999998825","","","1559127028351","7","","Erfurt","[]","Erfurt","true","false","2227.695000001404"
"","html-voicekey-response","32","226631","0.0-4.28-0.28","cxa196gxj2df0nl","{""user_agent"":""Mozilla/5.0 (Macintosh; Intel Mac OS X 10_14_4) AppleWebKit/537.36 (KHTML, like Gecko) Chrome/74.0.3729.169 Safari/537.36"",""on_chrome"":true,""on_mobile"":false,""language"":""en-US"",""screen_resolution"":[1440,900],""platform"":""MacIntel"",""timezone"":""Europe/Berlin""}","23","1621.5749999990571","","","1559127031182","11","","Alfeld","[]","Alfeld","true","false","2713.739999999234"
"","html-voicekey-response","33","236514","0.0-4.29-0.29","cxa196gxj2df0nl","{""user_agent"":""Mozilla/5.0 (Macintosh; Intel Mac OS X 10_14_4) AppleWebKit/537.36 (KHTML, like Gecko) Chrome/74.0.3729.169 Safari/537.36"",""on_chrome"":true,""on_mobile"":false,""language"":""en-US"",""screen_resolution"":[1440,900],""platform"":""MacIntel"",""timezone"":""Europe/Berlin""}","23","5170.814999999338","","","1559127034499","8","","","[]","Gotha","false","false","5880.525000000489"
"","html-voicekey-response","34","239261","0.0-4.30-0.30","cxa196gxj2df0nl","{""user_agent"":""Mozilla/5.0 (Macintosh; Intel Mac OS X 10_14_4) AppleWebKit/537.36 (KHTML, like Gecko) Chrome/74.0.3729.169 Safari/537.36"",""on_chrome"":true,""on_mobile"":false,""language"":""en-US"",""screen_resolution"":[1440,900],""platform"":""MacIntel"",""timezone"":""Europe/Berlin""}","23","1417.8200000004204","","","1559127044382","12","","Dessau","[]","Dessau","true","true","2143.4450000015204"
"","html-voicekey-response","35","242627","0.0-4.31-0.31","cxa196gxj2df0nl","{""user_agent"":""Mozilla/5.0 (Macintosh; Intel Mac OS X 10_14_4) AppleWebKit/537.36 (KHTML, like Gecko) Chrome/74.0.3729.169 Safari/537.36"",""on_chrome"":true,""on_mobile"":false,""language"":""en-US"",""screen_resolution"":[1440,900],""platform"":""MacIntel"",""timezone"":""Europe/Berlin""}","23","1754.2649999976043","","","1559127047129","9","","München","[]","München","true","false","2763.504999998986"
"","html-voicekey-response","36","246068","0.0-4.32-0.32","cxa196gxj2df0nl","{""user_agent"":""Mozilla/5.0 (Macintosh; Intel Mac OS X 10_14_4) AppleWebKit/537.36 (KHTML, like Gecko) Chrome/74.0.3729.169 Safari/537.36"",""on_chrome"":true,""on_mobile"":false,""language"":""en-US"",""screen_resolution"":[1440,900],""platform"":""MacIntel"",""timezone"":""Europe/Berlin""}","23","2161.275000000233","","","1559127050496","12","","Dessau","[]","Dessau","true","false","2837.1249999981956"
"","html-voicekey-response","37","249318","0.0-4.33-0.33","cxa196gxj2df0nl","{""user_agent"":""Mozilla/5.0 (Macintosh; Intel Mac OS X 10_14_4) AppleWebKit/537.36 (KHTML, like Gecko) Chrome/74.0.3729.169 Safari/537.36"",""on_chrome"":true,""on_mobile"":false,""language"":""en-US"",""screen_resolution"":[1440,900],""platform"":""MacIntel"",""timezone"":""Europe/Berlin""}","23","1636.3800000015822","","","1559127053938","10","","Heidelberg","[]","Heidelberg","true","false","2645.1750000014727"
"","html-voicekey-response","38","255617","0.0-4.34-0.34","cxa196gxj2df0nl","{""user_agent"":""Mozilla/5.0 (Macintosh; Intel Mac OS X 10_14_4) AppleWebKit/537.36 (KHTML, like Gecko) Chrome/74.0.3729.169 Safari/537.36"",""on_chrome"":true,""on_mobile"":false,""language"":""en-US"",""screen_resolution"":[1440,900],""platform"":""MacIntel"",""timezone"":""Europe/Berlin""}","23","4621.315000001987","","","1559127057185","4","","Würzburg","[]","Würzburg","true","false","5696.690000000672"
"","html-voicekey-response","39","259043","0.0-4.35-0.35","cxa196gxj2df0nl","{""user_agent"":""Mozilla/5.0 (Macintosh; Intel Mac OS X 10_14_4) AppleWebKit/537.36 (KHTML, like Gecko) Chrome/74.0.3729.169 Safari/537.36"",""on_chrome"":true,""on_mobile"":false,""language"":""en-US"",""screen_resolution"":[1440,900],""platform"":""MacIntel"",""timezone"":""Europe/Berlin""}","23","1663.7349999999337","","","1559127063485","13","","Chemnitz","[]","Chemnitz","true","true","2823.435000002064"
"","html-voicekey-response","40","262910","0.0-4.36-0.36","cxa196gxj2df0nl","{""user_agent"":""Mozilla/5.0 (Macintosh; Intel Mac OS X 10_14_4) AppleWebKit/537.36 (KHTML, like Gecko) Chrome/74.0.3729.169 Safari/537.36"",""on_chrome"":true,""on_mobile"":false,""language"":""en-US"",""screen_resolution"":[1440,900],""platform"":""MacIntel"",""timezone"":""Europe/Berlin""}","23","2254.029999998084","","","1559127066911","14","","Potsdam","[]","Potsdam","true","true","3263.589999998687"
"","html-voicekey-response","41","267677","0.0-4.37-0.37","cxa196gxj2df0nl","{""user_agent"":""Mozilla/5.0 (Macintosh; Intel Mac OS X 10_14_4) AppleWebKit/537.36 (KHTML, like Gecko) Chrome/74.0.3729.169 Safari/537.36"",""on_chrome"":true,""on_mobile"":false,""language"":""en-US"",""screen_resolution"":[1440,900],""platform"":""MacIntel"",""timezone"":""Europe/Berlin""}","23","3120.9599999981933","","","1559127070778","13","","Chemnitz","[]","Chemnitz","true","false","4164.444999998552"
"","html-voicekey-response","42","270404","0.0-4.38-0.38","cxa196gxj2df0nl","{""user_agent"":""Mozilla/5.0 (Macintosh; Intel Mac OS X 10_14_4) AppleWebKit/537.36 (KHTML, like Gecko) Chrome/74.0.3729.169 Safari/537.36"",""on_chrome"":true,""on_mobile"":false,""language"":""en-US"",""screen_resolution"":[1440,900],""platform"":""MacIntel"",""timezone"":""Europe/Berlin""}","23","1165.4749999996625","","","1559127075545","14","","Potsdam","[]","Potsdam","true","false","2124.1300000001793"
"","html-voicekey-response","43","278238","0.0-4.39-0.39","cxa196gxj2df0nl","{""user_agent"":""Mozilla/5.0 (Macintosh; Intel Mac OS X 10_14_4) AppleWebKit/537.36 (KHTML, like Gecko) Chrome/74.0.3729.169 Safari/537.36"",""on_chrome"":true,""on_mobile"":false,""language"":""en-US"",""screen_resolution"":[1440,900],""platform"":""MacIntel"",""timezone"":""Europe/Berlin""}","23","3072.275000000291","","","1559127078272","8","","","[]","Gotha","false","false","3830.934999998135"
"","html-voicekey-response","44","284178","0.0-4.40-0.40","cxa196gxj2df0nl","{""user_agent"":""Mozilla/5.0 (Macintosh; Intel Mac OS X 10_14_4) AppleWebKit/537.36 (KHTML, like Gecko) Chrome/74.0.3729.169 Safari/537.36"",""on_chrome"":true,""on_mobile"":false,""language"":""en-US"",""screen_resolution"":[1440,900],""platform"":""MacIntel"",""timezone"":""Europe/Berlin""}","23","Infinity","","","1559127086107","11","","Alfeld","[]","Alfeld","true","false","5336.40000000014"
"","html-voicekey-response","45","287395","0.0-4.41-0.41","cxa196gxj2df0nl","{""user_agent"":""Mozilla/5.0 (Macintosh; Intel Mac OS X 10_14_4) AppleWebKit/537.36 (KHTML, like Gecko) Chrome/74.0.3729.169 Safari/537.36"",""on_chrome"":true,""on_mobile"":false,""language"":""en-US"",""screen_resolution"":[1440,900],""platform"":""MacIntel"",""timezone"":""Europe/Berlin""}","23","1856.2550000004471","","","1559127092046","4","","Würzburg","[]","Würzburg","true","false","2614.385000000824"
"","html-voicekey-response","46","290597","0.0-4.42-0.42","cxa196gxj2df0nl","{""user_agent"":""Mozilla/5.0 (Macintosh; Intel Mac OS X 10_14_4) AppleWebKit/537.36 (KHTML, like Gecko) Chrome/74.0.3729.169 Safari/537.36"",""on_chrome"":true,""on_mobile"":false,""language"":""en-US"",""screen_resolution"":[1440,900],""platform"":""MacIntel"",""timezone"":""Europe/Berlin""}","23","1768.7199999980862","","","1559127095266","12","","Dessau","[]","Dessau","true","false","2593.9199999993434"
"","html-voicekey-response","47","294303","0.0-4.43-0.43","cxa196gxj2df0nl","{""user_agent"":""Mozilla/5.0 (Macintosh; Intel Mac OS X 10_14_4) AppleWebKit/537.36 (KHTML, like Gecko) Chrome/74.0.3729.169 Safari/537.36"",""on_chrome"":true,""on_mobile"":false,""language"":""en-US"",""screen_resolution"":[1440,900],""platform"":""MacIntel"",""timezone"":""Europe/Berlin""}","23","1825.0300000016346","","","1559127098466","15","","Nürnberg","[]","Nürnberg","true","true","3102.034999999916"
"","html-voicekey-response","48","297752","0.0-4.44-0.44","cxa196gxj2df0nl","{""user_agent"":""Mozilla/5.0 (Macintosh; Intel Mac OS X 10_14_4) AppleWebKit/537.36 (KHTML, like Gecko) Chrome/74.0.3729.169 Safari/537.36"",""on_chrome"":true,""on_mobile"":false,""language"":""en-US"",""screen_resolution"":[1440,900],""platform"":""MacIntel"",""timezone"":""Europe/Berlin""}","23","1486.6449999988895","","","1559127102172","16","","Schwangau","[]","Schwangau","true","true","2845.464999998512"
"","html-voicekey-response","49","301304","0.0-4.45-0.45","cxa196gxj2df0nl","{""user_agent"":""Mozilla/5.0 (Macintosh; Intel Mac OS X 10_14_4) AppleWebKit/537.36 (KHTML, like Gecko) Chrome/74.0.3729.169 Safari/537.36"",""on_chrome"":true,""on_mobile"":false,""language"":""en-US"",""screen_resolution"":[1440,900],""platform"":""MacIntel"",""timezone"":""Europe/Berlin""}","23","1971.1099999965868","","","1559127105621","15","","Nürnberg","[]","Nürnberg","true","false","2946.314999997383"
"","html-voicekey-response","50","304527","0.0-4.46-0.46","cxa196gxj2df0nl","{""user_agent"":""Mozilla/5.0 (Macintosh; Intel Mac OS X 10_14_4) AppleWebKit/537.36 (KHTML, like Gecko) Chrome/74.0.3729.169 Safari/537.36"",""on_chrome"":true,""on_mobile"":false,""language"":""en-US"",""screen_resolution"":[1440,900],""platform"":""MacIntel"",""timezone"":""Europe/Berlin""}","23","1743.5449999992038","","","1559127109173","16","","Schwangau","[]","Schwangau","true","false","2619.2100000007777"
"","html-voicekey-response","51","308043","0.0-4.47-0.47","cxa196gxj2df0nl","{""user_agent"":""Mozilla/5.0 (Macintosh; Intel Mac OS X 10_14_4) AppleWebKit/537.36 (KHTML, like Gecko) Chrome/74.0.3729.169 Safari/537.36"",""on_chrome"":true,""on_mobile"":false,""language"":""en-US"",""screen_resolution"":[1440,900],""platform"":""MacIntel"",""timezone"":""Europe/Berlin""}","23","1820.2500000023633","","","1559127112396","8","","Gotha","[]","Gotha","true","false","2911.775000000489"
"","html-voicekey-response","52","311511","0.0-4.48-0.48","cxa196gxj2df0nl","{""user_agent"":""Mozilla/5.0 (Macintosh; Intel Mac OS X 10_14_4) AppleWebKit/537.36 (KHTML, like Gecko) Chrome/74.0.3729.169 Safari/537.36"",""on_chrome"":true,""on_mobile"":false,""language"":""en-US"",""screen_resolution"":[1440,900],""platform"":""MacIntel"",""timezone"":""Europe/Berlin""}","23","1822.5549999968848","","","1559127115910","13","","Chemnitz","[]","Chemnitz","true","false","2864.594999999157"
"","html-voicekey-response","53","314734","0.0-4.49-0.49","cxa196gxj2df0nl","{""user_agent"":""Mozilla/5.0 (Macintosh; Intel Mac OS X 10_14_4) AppleWebKit/537.36 (KHTML, like Gecko) Chrome/74.0.3729.169 Safari/537.36"",""on_chrome"":true,""on_mobile"":false,""language"":""en-US"",""screen_resolution"":[1440,900],""platform"":""MacIntel"",""timezone"":""Europe/Berlin""}","23","1495.3299999995857","","","1559127119378","17","","Leipzig","[]","Leipzig","true","true","2619.8050000020885"
"","html-voicekey-response","54","317584","0.0-4.50-0.50","cxa196gxj2df0nl","{""user_agent"":""Mozilla/5.0 (Macintosh; Intel Mac OS X 10_14_4) AppleWebKit/537.36 (KHTML, like Gecko) Chrome/74.0.3729.169 Safari/537.36"",""on_chrome"":true,""on_mobile"":false,""language"":""en-US"",""screen_resolution"":[1440,900],""platform"":""MacIntel"",""timezone"":""Europe/Berlin""}","23","1388.5649999991642","","","1559127122601","14","","Potsdam","[]","Potsdam","true","false","2247.7749999998487"
"","html-voicekey-response","55","320900","0.0-4.51-0.51","cxa196gxj2df0nl","{""user_agent"":""Mozilla/5.0 (Macintosh; Intel Mac OS X 10_14_4) AppleWebKit/537.36 (KHTML, like Gecko) Chrome/74.0.3729.169 Safari/537.36"",""on_chrome"":true,""on_mobile"":false,""language"":""en-US"",""screen_resolution"":[1440,900],""platform"":""MacIntel"",""timezone"":""Europe/Berlin""}","23","1571.0699999998092","","","1559127125452","17","","Leipzig","[]","Leipzig","true","false","2713.754999996978"
"","html-voicekey-response","56","324410","0.0-4.52-0.52","cxa196gxj2df0nl","{""user_agent"":""Mozilla/5.0 (Macintosh; Intel Mac OS X 10_14_4) AppleWebKit/537.36 (KHTML, like Gecko) Chrome/74.0.3729.169 Safari/537.36"",""on_chrome"":true,""on_mobile"":false,""language"":""en-US"",""screen_resolution"":[1440,900],""platform"":""MacIntel"",""timezone"":""Europe/Berlin""}","23","2047.6399999987102","","","1559127128768","11","","Alfeld","[]","Alfeld","true","false","2906.7600000016973"
"","html-voicekey-response","57","328943","0.0-4.53-0.53","cxa196gxj2df0nl","{""user_agent"":""Mozilla/5.0 (Macintosh; Intel Mac OS X 10_14_4) AppleWebKit/537.36 (KHTML, like Gecko) Chrome/74.0.3729.169 Safari/537.36"",""on_chrome"":true,""on_mobile"":false,""language"":""en-US"",""screen_resolution"":[1440,900],""platform"":""MacIntel"",""timezone"":""Europe/Berlin""}","23","2104.3549999975135","","","1559127132278","18","","Forchheim","[]","Forchheim","true","true","3930.159999999858"
"","html-voicekey-response","58","332111","0.0-4.54-0.54","cxa196gxj2df0nl","{""user_agent"":""Mozilla/5.0 (Macintosh; Intel Mac OS X 10_14_4) AppleWebKit/537.36 (KHTML, like Gecko) Chrome/74.0.3729.169 Safari/537.36"",""on_chrome"":true,""on_mobile"":false,""language"":""en-US"",""screen_resolution"":[1440,900],""platform"":""MacIntel"",""timezone"":""Europe/Berlin""}","23","1704.7699999983074","","","1559127136811","19","","Frankfurt","[]","Frankfurt","true","true","2563.2799999985145"
"","html-voicekey-response","59","342284","0.0-4.55-0.55","cxa196gxj2df0nl","{""user_agent"":""Mozilla/5.0 (Macintosh; Intel Mac OS X 10_14_4) AppleWebKit/537.36 (KHTML, like Gecko) Chrome/74.0.3729.169 Safari/537.36"",""on_chrome"":true,""on_mobile"":false,""language"":""en-US"",""screen_resolution"":[1440,900],""platform"":""MacIntel"",""timezone"":""Europe/Berlin""}","23","5627.809999999799","","","1559127139979","18","","","[]","Forchheim","false","false","6170.289999998175"
"","html-voicekey-response","60","345852","0.0-4.56-0.56","cxa196gxj2df0nl","{""user_agent"":""Mozilla/5.0 (Macintosh; Intel Mac OS X 10_14_4) AppleWebKit/537.36 (KHTML, like Gecko) Chrome/74.0.3729.169 Safari/537.36"",""on_chrome"":true,""on_mobile"":false,""language"":""en-US"",""screen_resolution"":[1440,900],""platform"":""MacIntel"",""timezone"":""Europe/Berlin""}","23","100","","","1559127150152","19","","Frankfurt","[]","Frankfurt","true","false","2962.5699999996577"
"","html-voicekey-response","61","348509","0.0-4.57-0.57","cxa196gxj2df0nl","{""user_agent"":""Mozilla/5.0 (Macintosh; Intel Mac OS X 10_14_4) AppleWebKit/537.36 (KHTML, like Gecko) Chrome/74.0.3729.169 Safari/537.36"",""on_chrome"":true,""on_mobile"":false,""language"":""en-US"",""screen_resolution"":[1440,900],""platform"":""MacIntel"",""timezone"":""Europe/Berlin""}","23","1162.5650000003866","","","1559127153719","15","","Nürnberg","[]","Nürnberg","true","false","2054.425000002084"
"","html-voicekey-response","62","351575","0.0-4.58-0.58","cxa196gxj2df0nl","{""user_agent"":""Mozilla/5.0 (Macintosh; Intel Mac OS X 10_14_4) AppleWebKit/537.36 (KHTML, like Gecko) Chrome/74.0.3729.169 Safari/537.36"",""on_chrome"":true,""on_mobile"":false,""language"":""en-US"",""screen_resolution"":[1440,900],""platform"":""MacIntel"",""timezone"":""Europe/Berlin""}","23","1505.3050000004355","","","1559127156376","4","","Würzburg","[]","Würzburg","true","false","2464.045000000624"
"","html-voicekey-response","63","355193","0.0-4.59-0.59","cxa196gxj2df0nl","{""user_agent"":""Mozilla/5.0 (Macintosh; Intel Mac OS X 10_14_4) AppleWebKit/537.36 (KHTML, like Gecko) Chrome/74.0.3729.169 Safari/537.36"",""on_chrome"":true,""on_mobile"":false,""language"":""en-US"",""screen_resolution"":[1440,900],""platform"":""MacIntel"",""timezone"":""Europe/Berlin""}","23","1871.655000000645","","","1559127159443","16","","Schwangau","[]","Schwangau","true","false","3013.7100000029313"
"","html-voicekey-response","64","358500","0.0-4.60-0.60","cxa196gxj2df0nl","{""user_agent"":""Mozilla/5.0 (Macintosh; Intel Mac OS X 10_14_4) AppleWebKit/537.36 (KHTML, like Gecko) Chrome/74.0.3729.169 Safari/537.36"",""on_chrome"":true,""on_mobile"":false,""language"":""en-US"",""screen_resolution"":[1440,900],""platform"":""MacIntel"",""timezone"":""Europe/Berlin""}","23","1511.4750000010013","","","1559127163062","20","","Hamburg ","[]","Hamburg ","true","true","2702.8099999988335"
"","html-voicekey-response","65","361799","0.0-4.61-0.61","cxa196gxj2df0nl","{""user_agent"":""Mozilla/5.0 (Macintosh; Intel Mac OS X 10_14_4) AppleWebKit/537.36 (KHTML, like Gecko) Chrome/74.0.3729.169 Safari/537.36"",""on_chrome"":true,""on_mobile"":false,""language"":""en-US"",""screen_resolution"":[1440,900],""platform"":""MacIntel"",""timezone"":""Europe/Berlin""}","23","1470.2049999994692","","","1559127166368","21","","Konstanz","[]","Konstanz","true","true","2696.7750000003725"
"","html-voicekey-response","66","364083","0.0-4.62-0.62","cxa196gxj2df0nl","{""user_agent"":""Mozilla/5.0 (Macintosh; Intel Mac OS X 10_14_4) AppleWebKit/537.36 (KHTML, like Gecko) Chrome/74.0.3729.169 Safari/537.36"",""on_chrome"":true,""on_mobile"":false,""language"":""en-US"",""screen_resolution"":[1440,900],""platform"":""MacIntel"",""timezone"":""Europe/Berlin""}","23","937.5149999994668","","","1559127169668","20","","Hamburg ","[]","Hamburg ","true","false","1679.5850000016508"
"","html-voicekey-response","67","368207","0.0-4.63-0.63","cxa196gxj2df0nl","{""user_agent"":""Mozilla/5.0 (Macintosh; Intel Mac OS X 10_14_4) AppleWebKit/537.36 (KHTML, like Gecko) Chrome/74.0.3729.169 Safari/537.36"",""on_chrome"":true,""on_mobile"":false,""language"":""en-US"",""screen_resolution"":[1440,900],""platform"":""MacIntel"",""timezone"":""Europe/Berlin""}","23","1254.38499999824","","","1559127171950","21","","Konstanz","[]","Konstanz","true","false","3521.824999999837"
"","html-voicekey-response","68","371224","0.0-4.64-0.64","cxa196gxj2df0nl","{""user_agent"":""Mozilla/5.0 (Macintosh; Intel Mac OS X 10_14_4) AppleWebKit/537.36 (KHTML, like Gecko) Chrome/74.0.3729.169 Safari/537.36"",""on_chrome"":true,""on_mobile"":false,""language"":""en-US"",""screen_resolution"":[1440,900],""platform"":""MacIntel"",""timezone"":""Europe/Berlin""}","23","1205.2700000002283","","","1559127176075","17","","Leipzig","[]","Leipzig","true","false","2414.259999997739"
"","html-voicekey-response","69","374240","0.0-4.65-0.65","cxa196gxj2df0nl","{""user_agent"":""Mozilla/5.0 (Macintosh; Intel Mac OS X 10_14_4) AppleWebKit/537.36 (KHTML, like Gecko) Chrome/74.0.3729.169 Safari/537.36"",""on_chrome"":true,""on_mobile"":false,""language"":""en-US"",""screen_resolution"":[1440,900],""platform"":""MacIntel"",""timezone"":""Europe/Berlin""}","23","1520.5149999982445","","","1559127179093","8","","Gotha","[]","Gotha","true","false","2411.104999999283"
"","html-voicekey-response","70","378165","0.0-4.66-0.66","cxa196gxj2df0nl","{""user_agent"":""Mozilla/5.0 (Macintosh; Intel Mac OS X 10_14_4) AppleWebKit/537.36 (KHTML, like Gecko) Chrome/74.0.3729.169 Safari/537.36"",""on_chrome"":true,""on_mobile"":false,""language"":""en-US"",""screen_resolution"":[1440,900],""platform"":""MacIntel"",""timezone"":""Europe/Berlin""}","23","2338.2049999980723","","","1559127182108","22","","Bamberg","[]","Bamberg","true","true","3322.2099999984493"
"","html-voicekey-response","71","387631","0.0-4.67-0.67","cxa196gxj2df0nl","{""user_agent"":""Mozilla/5.0 (Macintosh; Intel Mac OS X 10_14_4) AppleWebKit/537.36 (KHTML, like Gecko) Chrome/74.0.3729.169 Safari/537.36"",""on_chrome"":true,""on_mobile"":false,""language"":""en-US"",""screen_resolution"":[1440,900],""platform"":""MacIntel"",""timezone"":""Europe/Berlin""}","23","4887.2500000014315","","","1559127186033","18","","","[]","Forchheim","false","false","5463.384999999136"
"","html-voicekey-response","72","391393","0.0-4.68-0.68","cxa196gxj2df0nl","{""user_agent"":""Mozilla/5.0 (Macintosh; Intel Mac OS X 10_14_4) AppleWebKit/537.36 (KHTML, like Gecko) Chrome/74.0.3729.169 Safari/537.36"",""on_chrome"":true,""on_mobile"":false,""language"":""en-US"",""screen_resolution"":[1440,900],""platform"":""MacIntel"",""timezone"":""Europe/Berlin""}","23","2272.174999999907","","","1559127195499","22","","Bamberg","[]","Bamberg","true","false","3159.1500000031083"
"","html-voicekey-response","73","394610","0.0-4.69-0.69","cxa196gxj2df0nl","{""user_agent"":""Mozilla/5.0 (Macintosh; Intel Mac OS X 10_14_4) AppleWebKit/537.36 (KHTML, like Gecko) Chrome/74.0.3729.169 Safari/537.36"",""on_chrome"":true,""on_mobile"":false,""language"":""en-US"",""screen_resolution"":[1440,900],""platform"":""MacIntel"",""timezone"":""Europe/Berlin""}","23","1637.3150000016672","","","1559127199261","19","","Frankfurt","[]","Frankfurt","true","false","2613.5949999989243"
"","html-voicekey-response","74","397994","0.0-4.70-0.70","cxa196gxj2df0nl","{""user_agent"":""Mozilla/5.0 (Macintosh; Intel Mac OS X 10_14_4) AppleWebKit/537.36 (KHTML, like Gecko) Chrome/74.0.3729.169 Safari/537.36"",""on_chrome"":true,""on_mobile"":false,""language"":""en-US"",""screen_resolution"":[1440,900],""platform"":""MacIntel"",""timezone"":""Europe/Berlin""}","23","1804.9249999983936","","","1559127202478","23","","Stuttgart","[]","Stuttgart","true","true","2781.1000000001513"
"","html-voicekey-response","75","400553","0.0-4.71-0.71","cxa196gxj2df0nl","{""user_agent"":""Mozilla/5.0 (Macintosh; Intel Mac OS X 10_14_4) AppleWebKit/537.36 (KHTML, like Gecko) Chrome/74.0.3729.169 Safari/537.36"",""on_chrome"":true,""on_mobile"":false,""language"":""en-US"",""screen_resolution"":[1440,900],""platform"":""MacIntel"",""timezone"":""Europe/Berlin""}","23","1304.2149999980816","","","1559127205863","24","","Köln","[]","Köln","true","true","1955.4800000005052"
"","html-voicekey-response","76","404902","0.0-4.72-0.72","cxa196gxj2df0nl","{""user_agent"":""Mozilla/5.0 (Macintosh; Intel Mac OS X 10_14_4) AppleWebKit/537.36 (KHTML, like Gecko) Chrome/74.0.3729.169 Safari/537.36"",""on_chrome"":true,""on_mobile"":false,""language"":""en-US"",""screen_resolution"":[1440,900],""platform"":""MacIntel"",""timezone"":""Europe/Berlin""}","23","2987.070000000915","","","1559127208422","23","","Stuttgart","[]","Stuttgart","true","false","3745.460000001942"
"","html-voicekey-response","77","407236","0.0-4.73-0.73","cxa196gxj2df0nl","{""user_agent"":""Mozilla/5.0 (Macintosh; Intel Mac OS X 10_14_4) AppleWebKit/537.36 (KHTML, like Gecko) Chrome/74.0.3729.169 Safari/537.36"",""on_chrome"":true,""on_mobile"":false,""language"":""en-US"",""screen_resolution"":[1440,900],""platform"":""MacIntel"",""timezone"":""Europe/Berlin""}","23","1105.1549999991898","","","1559127212770","24","","Köln","[]","Köln","true","false","1730.504999999539"
"","html-voicekey-response","78","409972","0.0-4.74-0.74","cxa196gxj2df0nl","{""user_agent"":""Mozilla/5.0 (Macintosh; Intel Mac OS X 10_14_4) AppleWebKit/537.36 (KHTML, like Gecko) Chrome/74.0.3729.169 Safari/537.36"",""on_chrome"":true,""on_mobile"":false,""language"":""en-US"",""screen_resolution"":[1440,900],""platform"":""MacIntel"",""timezone"":""Europe/Berlin""}","23","1221.4800000018208","","","1559127215103","20","","Hamburg ","[]","Hamburg ","true","false","2130.945000000822"
"","html-voicekey-response","79","420526","0.0-4.75-0.75","cxa196gxj2df0nl","{""user_agent"":""Mozilla/5.0 (Macintosh; Intel Mac OS X 10_14_4) AppleWebKit/537.36 (KHTML, like Gecko) Chrome/74.0.3729.169 Safari/537.36"",""on_chrome"":true,""on_mobile"":false,""language"":""en-US"",""screen_resolution"":[1440,900],""platform"":""MacIntel"",""timezone"":""Europe/Berlin""}","23","5176.260000001848","","","1559127217840","21","","","[]","Konstanz","false","false","6551.595000000845"
"","html-voicekey-response","80","423040","0.0-4.76-0.76","cxa196gxj2df0nl","{""user_agent"":""Mozilla/5.0 (Macintosh; Intel Mac OS X 10_14_4) AppleWebKit/537.36 (KHTML, like Gecko) Chrome/74.0.3729.169 Safari/537.36"",""on_chrome"":true,""on_mobile"":false,""language"":""en-US"",""screen_resolution"":[1440,900],""platform"":""MacIntel"",""timezone"":""Europe/Berlin""}","23","1171.1699999994948","","","1559127228395","2","","Berlin","[]","Berlin","true","false","1909.8249999988475"
"","html-voicekey-response","81","427423","0.0-4.77-0.77","cxa196gxj2df0nl","{""user_agent"":""Mozilla/5.0 (Macintosh; Intel Mac OS X 10_14_4) AppleWebKit/537.36 (KHTML, like Gecko) Chrome/74.0.3729.169 Safari/537.36"",""on_chrome"":true,""on_mobile"":false,""language"":""en-US"",""screen_resolution"":[1440,900],""platform"":""MacIntel"",""timezone"":""Europe/Berlin""}","23","2987.8299999998185","","","1559127230908","18","","Forchheim","[]","Forchheim","true","false","3779.920000000857"
"","html-voicekey-response","82","431340","0.0-4.78-0.78","cxa196gxj2df0nl","{""user_agent"":""Mozilla/5.0 (Macintosh; Intel Mac OS X 10_14_4) AppleWebKit/537.36 (KHTML, like Gecko) Chrome/74.0.3729.169 Safari/537.36"",""on_chrome"":true,""on_mobile"":false,""language"":""en-US"",""screen_resolution"":[1440,900],""platform"":""MacIntel"",""timezone"":""Europe/Berlin""}","23","1654.980000001006","","","1559127235291","1","","Magdeburg","[]","Magdeburg","true","false","3313.8399999989197"
"","html-voicekey-response","83","435431","0.0-4.79-0.79","cxa196gxj2df0nl","{""user_agent"":""Mozilla/5.0 (Macintosh; Intel Mac OS X 10_14_4) AppleWebKit/537.36 (KHTML, like Gecko) Chrome/74.0.3729.169 Safari/537.36"",""on_chrome"":true,""on_mobile"":false,""language"":""en-US"",""screen_resolution"":[1440,900],""platform"":""MacIntel"",""timezone"":""Europe/Berlin""}","23","2145.879999998119","","","1559127239208","25","","Osnabrück","[]","Osnabrück","true","true","3488.2350000007427"
"","html-voicekey-response","84","438831","0.0-4.80-0.80","cxa196gxj2df0nl","{""user_agent"":""Mozilla/5.0 (Macintosh; Intel Mac OS X 10_14_4) AppleWebKit/537.36 (KHTML, like Gecko) Chrome/74.0.3729.169 Safari/537.36"",""on_chrome"":true,""on_mobile"":false,""language"":""en-US"",""screen_resolution"":[1440,900],""platform"":""MacIntel"",""timezone"":""Europe/Berlin""}","23","1721.4999999977067","","","1559127243299","26","","Freiburg","[]","Freiburg","true","true","2795.865000000049"
"","html-voicekey-response","85","445231","0.0-4.81-0.81","cxa196gxj2df0nl","{""user_agent"":""Mozilla/5.0 (Macintosh; Intel Mac OS X 10_14_4) AppleWebKit/537.36 (KHTML, like Gecko) Chrome/74.0.3729.169 Safari/537.36"",""on_chrome"":true,""on_mobile"":false,""language"":""en-US"",""screen_resolution"":[1440,900],""platform"":""MacIntel"",""timezone"":""Europe/Berlin""}","23","4870.699999997543","","","1559127246699","25","","Osnabrück","[]","Osnabrück","true","false","5796.954999997979"
"","html-voicekey-response","86","448140","0.0-4.82-0.82","cxa196gxj2df0nl","{""user_agent"":""Mozilla/5.0 (Macintosh; Intel Mac OS X 10_14_4) AppleWebKit/537.36 (KHTML, like Gecko) Chrome/74.0.3729.169 Safari/537.36"",""on_chrome"":true,""on_mobile"":false,""language"":""en-US"",""screen_resolution"":[1440,900],""platform"":""MacIntel"",""timezone"":""Europe/Berlin""}","23","1478.300000000489","","","1559127253101","26","","Freiburg","[]","Freiburg","true","false","2304.1699999994016"
"","html-voicekey-response","87","451557","0.0-4.83-0.83","cxa196gxj2df0nl","{""user_agent"":""Mozilla/5.0 (Macintosh; Intel Mac OS X 10_14_4) AppleWebKit/537.36 (KHTML, like Gecko) Chrome/74.0.3729.169 Safari/537.36"",""on_chrome"":true,""on_mobile"":false,""language"":""en-US"",""screen_resolution"":[1440,900],""platform"":""MacIntel"",""timezone"":""Europe/Berlin""}","23","2004.0199999983074","","","1559127256008","22","","Bamberg","[]","Bamberg","true","false","2814.9499999999534"
"","html-voicekey-response","88","460990","0.0-4.84-0.84","cxa196gxj2df0nl","{""user_agent"":""Mozilla/5.0 (Macintosh; Intel Mac OS X 10_14_4) AppleWebKit/537.36 (KHTML, like Gecko) Chrome/74.0.3729.169 Safari/537.36"",""on_chrome"":true,""on_mobile"":false,""language"":""en-US"",""screen_resolution"":[1440,900],""platform"":""MacIntel"",""timezone"":""Europe/Berlin""}","23","7851.920000002638","","","1559127259426","23","","Stuttgart","[]","Stuttgart","true","false","8827.445000002626"
"","html-voicekey-response","89","468231","0.0-4.85-0.85","cxa196gxj2df0nl","{""user_agent"":""Mozilla/5.0 (Macintosh; Intel Mac OS X 10_14_4) AppleWebKit/537.36 (KHTML, like Gecko) Chrome/74.0.3729.169 Safari/537.36"",""on_chrome"":true,""on_mobile"":false,""language"":""en-US"",""screen_resolution"":[1440,900],""platform"":""MacIntel"",""timezone"":""Europe/Berlin""}","23","1978.4600000001142","","","1559127268859","21","","","[]","Konstanz","false","false","3236.9199999993434"
"","html-voicekey-response","90","473131","0.0-4.86-0.86","cxa196gxj2df0nl","{""user_agent"":""Mozilla/5.0 (Macintosh; Intel Mac OS X 10_14_4) AppleWebKit/537.36 (KHTML, like Gecko) Chrome/74.0.3729.169 Safari/537.36"",""on_chrome"":true,""on_mobile"":false,""language"":""en-US"",""screen_resolution"":[1440,900],""platform"":""MacIntel"",""timezone"":""Europe/Berlin""}","23","Infinity","","","1559127276099","18","","Forchheim","[]","Forchheim","true","false","4296.504999998433"
"","html-voicekey-response","91","475857","0.0-4.87-0.87","cxa196gxj2df0nl","{""user_agent"":""Mozilla/5.0 (Macintosh; Intel Mac OS X 10_14_4) AppleWebKit/537.36 (KHTML, like Gecko) Chrome/74.0.3729.169 Safari/537.36"",""on_chrome"":true,""on_mobile"":false,""language"":""en-US"",""screen_resolution"":[1440,900],""platform"":""MacIntel"",""timezone"":""Europe/Berlin""}","23","1547.5949999980862","","","1559127280999","24","","Köln","[]","Köln","true","false","2123.394999998738"
"","html-voicekey-response","92","481090","0.0-4.88-0.88","cxa196gxj2df0nl","{""user_agent"":""Mozilla/5.0 (Macintosh; Intel Mac OS X 10_14_4) AppleWebKit/537.36 (KHTML, like Gecko) Chrome/74.0.3729.169 Safari/537.36"",""on_chrome"":true,""on_mobile"":false,""language"":""en-US"",""screen_resolution"":[1440,900],""platform"":""MacIntel"",""timezone"":""Europe/Berlin""}","23","2788.6900000028313","","","1559127283725","8","","Gotha","[]","Gotha","true","false","4630.300000000687"
"","html-voicekey-response","93","487858","0.0-4.89-0.89","cxa196gxj2df0nl","{""user_agent"":""Mozilla/5.0 (Macintosh; Intel Mac OS X 10_14_4) AppleWebKit/537.36 (KHTML, like Gecko) Chrome/74.0.3729.169 Safari/537.36"",""on_chrome"":true,""on_mobile"":false,""language"":""en-US"",""screen_resolution"":[1440,900],""platform"":""MacIntel"",""timezone"":""Europe/Berlin""}","23","3554.6199999970036","","","1559127288958","11","","Alfeld","[]","Alfeld","true","false","6164.014999998501"
"","html-voicekey-response","94","501126","0.0-4.90-0.90","cxa196gxj2df0nl","{""user_agent"":""Mozilla/5.0 (Macintosh; Intel Mac OS X 10_14_4) AppleWebKit/537.36 (KHTML, like Gecko) Chrome/74.0.3729.169 Safari/537.36"",""on_chrome"":true,""on_mobile"":false,""language"":""en-US"",""screen_resolution"":[1440,900],""platform"":""MacIntel"",""timezone"":""Europe/Berlin""}","23","8655.075000000395","","","1559127295726","25","","","[]","Osnabrück","false","false","9263.825000001816"
"","html-voicekey-response","95","513320","0.0-4.91-0.91","cxa196gxj2df0nl","{""user_agent"":""Mozilla/5.0 (Macintosh; Intel Mac OS X 10_14_4) AppleWebKit/537.36 (KHTML, like Gecko) Chrome/74.0.3729.169 Safari/537.36"",""on_chrome"":true,""on_mobile"":false,""language"":""en-US"",""screen_resolution"":[1440,900],""platform"":""MacIntel"",""timezone"":""Europe/Berlin""}","23","6897.514999998593","","","1559127308994","21","","","[]","Konstanz","false","false","8189.565000000584"
"","html-voicekey-response","96","522994","0.0-4.92-0.92","cxa196gxj2df0nl","{""user_agent"":""Mozilla/5.0 (Macintosh; Intel Mac OS X 10_14_4) AppleWebKit/537.36 (KHTML, like Gecko) Chrome/74.0.3729.169 Safari/537.36"",""on_chrome"":true,""on_mobile"":false,""language"":""en-US"",""screen_resolution"":[1440,900],""platform"":""MacIntel"",""timezone"":""Europe/Berlin""}","23","5027.589999999536","","","1559127321189","18","","","[]","Forchheim","false","false","5668.794999997772"
"","html-voicekey-response","97","526685","0.0-4.93-0.93","cxa196gxj2df0nl","{""user_agent"":""Mozilla/5.0 (Macintosh; Intel Mac OS X 10_14_4) AppleWebKit/537.36 (KHTML, like Gecko) Chrome/74.0.3729.169 Safari/537.36"",""on_chrome"":true,""on_mobile"":false,""language"":""en-US"",""screen_resolution"":[1440,900],""platform"":""MacIntel"",""timezone"":""Europe/Berlin""}","23","212.16000000076602","","","1559127330863","23","","Stuttgart","[]","Stuttgart","true","false","3086.765000000072"
"","html-voicekey-response","98","530086","0.0-4.94-0.94","cxa196gxj2df0nl","{""user_agent"":""Mozilla/5.0 (Macintosh; Intel Mac OS X 10_14_4) AppleWebKit/537.36 (KHTML, like Gecko) Chrome/74.0.3729.169 Safari/537.36"",""on_chrome"":true,""on_mobile"":false,""language"":""en-US"",""screen_resolution"":[1440,900],""platform"":""MacIntel"",""timezone"":""Europe/Berlin""}","23","1554.5450000007172","","","1559127334553","26","","Freiburg","[]","Freiburg","true","false","2797.2150000022957"
"","html-voicekey-response","99","538242","0.0-4.95-0.95","cxa196gxj2df0nl","{""user_agent"":""Mozilla/5.0 (Macintosh; Intel Mac OS X 10_14_4) AppleWebKit/537.36 (KHTML, like Gecko) Chrome/74.0.3729.169 Safari/537.36"",""on_chrome"":true,""on_mobile"":false,""language"":""en-US"",""screen_resolution"":[1440,900],""platform"":""MacIntel"",""timezone"":""Europe/Berlin""}","23","3111.5499999994413","","","1559127337954","21","","","[]","Konstanz","false","false","4153.265000000829"
"","html-voicekey-response","100","550075","0.0-4.96-0.96","cxa196gxj2df0nl","{""user_agent"":""Mozilla/5.0 (Macintosh; Intel Mac OS X 10_14_4) AppleWebKit/537.36 (KHTML, like Gecko) Chrome/74.0.3729.169 Safari/537.36"",""on_chrome"":true,""on_mobile"":false,""language"":""en-US"",""screen_resolution"":[1440,900],""platform"":""MacIntel"",""timezone"":""Europe/Berlin""}","23","321.2150000015739","","","1559127346110","18","","","[]","Forchheim","false","false","7829.590000001132"
"","html-voicekey-response","101","553623","0.0-4.97-0.97","cxa196gxj2df0nl","{""user_agent"":""Mozilla/5.0 (Macintosh; Intel Mac OS X 10_14_4) AppleWebKit/537.36 (KHTML, like Gecko) Chrome/74.0.3729.169 Safari/537.36"",""on_chrome"":true,""on_mobile"":false,""language"":""en-US"",""screen_resolution"":[1440,900],""platform"":""MacIntel"",""timezone"":""Europe/Berlin""}","23","2036.4250000001398","","","1559127357943","25","","Osnabrück","[]","Osnabrück","true","false","2944.760000002221"
"","html-voicekey-response","102","558610","0.0-4.98-0.98","cxa196gxj2df0nl","{""user_agent"":""Mozilla/5.0 (Macintosh; Intel Mac OS X 10_14_4) AppleWebKit/537.36 (KHTML, like Gecko) Chrome/74.0.3729.169 Safari/537.36"",""on_chrome"":true,""on_mobile"":false,""language"":""en-US"",""screen_resolution"":[1440,900],""platform"":""MacIntel"",""timezone"":""Europe/Berlin""}","23","3271.0100000020816","","","1559127361492","11","","Alfeld","[]","Alfeld","true","false","4380.049999999697"
"","html-voicekey-response","103","561948","0.0-4.99-0.99","cxa196gxj2df0nl","{""user_agent"":""Mozilla/5.0 (Macintosh; Intel Mac OS X 10_14_4) AppleWebKit/537.36 (KHTML, like Gecko) Chrome/74.0.3729.169 Safari/537.36"",""on_chrome"":true,""on_mobile"":false,""language"":""en-US"",""screen_resolution"":[1440,900],""platform"":""MacIntel"",""timezone"":""Europe/Berlin""}","23","2142.945000001206","","","1559127366478","8","","Gotha","[]","Gotha","true","false","2735.189999999362"
"","html-voicekey-response","104","565298","0.0-4.100-0.100","cxa196gxj2df0nl","{""user_agent"":""Mozilla/5.0 (Macintosh; Intel Mac OS X 10_14_4) AppleWebKit/537.36 (KHTML, like Gecko) Chrome/74.0.3729.169 Safari/537.36"",""on_chrome"":true,""on_mobile"":false,""language"":""en-US"",""screen_resolution"":[1440,900],""platform"":""MacIntel"",""timezone"":""Europe/Berlin""}","23","2086.5499999980443","","","1559127369818","5","","Aachen","[]","Aachen","true","false","2745.725000000675"
"","html-voicekey-response","105","579015","0.0-4.101-0.101","cxa196gxj2df0nl","{""user_agent"":""Mozilla/5.0 (Macintosh; Intel Mac OS X 10_14_4) AppleWebKit/537.36 (KHTML, like Gecko) Chrome/74.0.3729.169 Safari/537.36"",""on_chrome"":true,""on_mobile"":false,""language"":""en-US"",""screen_resolution"":[1440,900],""platform"":""MacIntel"",""timezone"":""Europe/Berlin""}","23","9221.035000000242","","","1559127373167","18","","","[]","Forchheim","false","false","9712.640000001527"
"","html-voicekey-response","106","590475","0.0-4.102-0.102","cxa196gxj2df0nl","{""user_agent"":""Mozilla/5.0 (Macintosh; Intel Mac OS X 10_14_4) AppleWebKit/537.36 (KHTML, like Gecko) Chrome/74.0.3729.169 Safari/537.36"",""on_chrome"":true,""on_mobile"":false,""language"":""en-US"",""screen_resolution"":[1440,900],""platform"":""MacIntel"",""timezone"":""Europe/Berlin""}","23","2413.7749999989524","","","1559127386884","21","","","[]","Konstanz","false","false","7455.890000001062"
"","html-voicekey-response","107","594821","0.0-4.103-0.103","cxa196gxj2df0nl","{""user_agent"":""Mozilla/5.0 (Macintosh; Intel Mac OS X 10_14_4) AppleWebKit/537.36 (KHTML, like Gecko) Chrome/74.0.3729.169 Safari/537.36"",""on_chrome"":true,""on_mobile"":false,""language"":""en-US"",""screen_resolution"":[1440,900],""platform"":""MacIntel"",""timezone"":""Europe/Berlin""}","23","3148.4350000008476","","","1559127398344","18","","Forchheim","[]","Forchheim","true","false","3742.3500000004424"
"","html-voicekey-response","108","597722","0.0-4.104-0.104","cxa196gxj2df0nl","{""user_agent"":""Mozilla/5.0 (Macintosh; Intel Mac OS X 10_14_4) AppleWebKit/537.36 (KHTML, like Gecko) Chrome/74.0.3729.169 Safari/537.36"",""on_chrome"":true,""on_mobile"":false,""language"":""en-US"",""screen_resolution"":[1440,900],""platform"":""MacIntel"",""timezone"":""Europe/Berlin""}","23","1670.2300000014716","","","1559127402690","6","","Dresden","[]","Dresden","true","false","2295.0349999992177"
"","html-voicekey-response","109","600462","0.0-4.105-0.105","cxa196gxj2df0nl","{""user_agent"":""Mozilla/5.0 (Macintosh; Intel Mac OS X 10_14_4) AppleWebKit/537.36 (KHTML, like Gecko) Chrome/74.0.3729.169 Safari/537.36"",""on_chrome"":true,""on_mobile"":false,""language"":""en-US"",""screen_resolution"":[1440,900],""platform"":""MacIntel"",""timezone"":""Europe/Berlin""}","23","926.8850000024307","","","1559127405591","7","","Erfurt","[]","Erfurt","true","false","2136.115000001155"
"","html-voicekey-response","110","605162","0.0-4.106-0.106","cxa196gxj2df0nl","{""user_agent"":""Mozilla/5.0 (Macintosh; Intel Mac OS X 10_14_4) AppleWebKit/537.36 (KHTML, like Gecko) Chrome/74.0.3729.169 Safari/537.36"",""on_chrome"":true,""on_mobile"":false,""language"":""en-US"",""screen_resolution"":[1440,900],""platform"":""MacIntel"",""timezone"":""Europe/Berlin""}","23","3287.4499999978348","","","1559127408331","21","","Konstanz","[]","Konstanz","true","false","4096.184999998426"
"","html-voicekey-response","111","622945","0.0-4.107-0.107","cxa196gxj2df0nl","{""user_agent"":""Mozilla/5.0 (Macintosh; Intel Mac OS X 10_14_4) AppleWebKit/537.36 (KHTML, like Gecko) Chrome/74.0.3729.169 Safari/537.36"",""on_chrome"":true,""on_mobile"":false,""language"":""en-US"",""screen_resolution"":[1440,900],""platform"":""MacIntel"",""timezone"":""Europe/Berlin""}","23","12887.200000002724","","","1559127413031","3","","","[]","Ingolstadt","false","false","13778.97500000114"
"","html-voicekey-response","112","628846","0.0-4.108-0.108","cxa196gxj2df0nl","{""user_agent"":""Mozilla/5.0 (Macintosh; Intel Mac OS X 10_14_4) AppleWebKit/537.36 (KHTML, like Gecko) Chrome/74.0.3729.169 Safari/537.36"",""on_chrome"":true,""on_mobile"":false,""language"":""en-US"",""screen_resolution"":[1440,900],""platform"":""MacIntel"",""timezone"":""Europe/Berlin""}","23","Infinity","","","1559127430814","21","","Konstanz","[]","Konstanz","true","false","5296.630000000703"
"","html-voicekey-response","113","633803","0.0-4.109-0.109","cxa196gxj2df0nl","{""user_agent"":""Mozilla/5.0 (Macintosh; Intel Mac OS X 10_14_4) AppleWebKit/537.36 (KHTML, like Gecko) Chrome/74.0.3729.169 Safari/537.36"",""on_chrome"":true,""on_mobile"":false,""language"":""en-US"",""screen_resolution"":[1440,900],""platform"":""MacIntel"",""timezone"":""Europe/Berlin""}","23","3678.2099999999396","","","1559127436715","18","","Forchheim","[]","Forchheim","true","false","4353.579999999143"
"","html-voicekey-response","114","638553","0.0-4.110-0.110","cxa196gxj2df0nl","{""user_agent"":""Mozilla/5.0 (Macintosh; Intel Mac OS X 10_14_4) AppleWebKit/537.36 (KHTML, like Gecko) Chrome/74.0.3729.169 Safari/537.36"",""on_chrome"":true,""on_mobile"":false,""language"":""en-US"",""screen_resolution"":[1440,900],""platform"":""MacIntel"",""timezone"":""Europe/Berlin""}","23","3386.540000001178","","","1559127441673","23","","Stuttgart","[]","Stuttgart","true","false","4145.315000001574"
"","html-voicekey-response","115","642360","0.0-4.111-0.111","cxa196gxj2df0nl","{""user_agent"":""Mozilla/5.0 (Macintosh; Intel Mac OS X 10_14_4) AppleWebKit/537.36 (KHTML, like Gecko) Chrome/74.0.3729.169 Safari/537.36"",""on_chrome"":true,""on_mobile"":false,""language"":""en-US"",""screen_resolution"":[1440,900],""platform"":""MacIntel"",""timezone"":""Europe/Berlin""}","23","2653.175000001071","","","1559127446423","18","","Forchheim","[]","Forchheim","true","false","3202.450000000652"
"","html-voicekey-response","116","646693","0.0-4.112-0.112","cxa196gxj2df0nl","{""user_agent"":""Mozilla/5.0 (Macintosh; Intel Mac OS X 10_14_4) AppleWebKit/537.36 (KHTML, like Gecko) Chrome/74.0.3729.169 Safari/537.36"",""on_chrome"":true,""on_mobile"":false,""language"":""en-US"",""screen_resolution"":[1440,900],""platform"":""MacIntel"",""timezone"":""Europe/Berlin""}","23","2569.6650000007126","","","1559127450230","11","","Alfeld","[]","Alfeld","true","false","3728.4150000014342"
"","html-voicekey-response","117","650112","0.0-4.113-0.113","cxa196gxj2df0nl","{""user_agent"":""Mozilla/5.0 (Macintosh; Intel Mac OS X 10_14_4) AppleWebKit/537.36 (KHTML, like Gecko) Chrome/74.0.3729.169 Safari/537.36"",""on_chrome"":true,""on_mobile"":false,""language"":""en-US"",""screen_resolution"":[1440,900],""platform"":""MacIntel"",""timezone"":""Europe/Berlin""}","23","2169.5749999978348","","","1559127454563","21","","Konstanz","[]","Konstanz","true","false","2812.50999999966"
"","html-voicekey-response","118","658318","0.0-4.114-0.114","cxa196gxj2df0nl","{""user_agent"":""Mozilla/5.0 (Macintosh; Intel Mac OS X 10_14_4) AppleWebKit/537.36 (KHTML, like Gecko) Chrome/74.0.3729.169 Safari/537.36"",""on_chrome"":true,""on_mobile"":false,""language"":""en-US"",""screen_resolution"":[1440,900],""platform"":""MacIntel"",""timezone"":""Europe/Berlin""}","23","6973.7750000002325","","","1559127457983","18","","Forchheim","[]","Forchheim","true","false","7599.920000000624"
"","html-voicekey-response","119","661502","0.0-4.115-0.115","cxa196gxj2df0nl","{""user_agent"":""Mozilla/5.0 (Macintosh; Intel Mac OS X 10_14_4) AppleWebKit/537.36 (KHTML, like Gecko) Chrome/74.0.3729.169 Safari/537.36"",""on_chrome"":true,""on_mobile"":false,""language"":""en-US"",""screen_resolution"":[1440,900],""platform"":""MacIntel"",""timezone"":""Europe/Berlin""}","23","2086.114999999851","","","1559127466187","9","","München","[]","München","true","false","2578.4850000017323"
"","html-voicekey-response","120","664080","0.0-4.116-0.116","cxa196gxj2df0nl","{""user_agent"":""Mozilla/5.0 (Macintosh; Intel Mac OS X 10_14_4) AppleWebKit/537.36 (KHTML, like Gecko) Chrome/74.0.3729.169 Safari/537.36"",""on_chrome"":true,""on_mobile"":false,""language"":""en-US"",""screen_resolution"":[1440,900],""platform"":""MacIntel"",""timezone"":""Europe/Berlin""}","23","1397.6450000025566","","","1559127469372","4","","Würzburg","[]","Würzburg","true","false","1972.3300000005402"
"","html-voicekey-response","121","666980","0.0-4.117-0.117","cxa196gxj2df0nl","{""user_agent"":""Mozilla/5.0 (Macintosh; Intel Mac OS X 10_14_4) AppleWebKit/537.36 (KHTML, like Gecko) Chrome/74.0.3729.169 Safari/537.36"",""on_chrome"":true,""on_mobile"":false,""language"":""en-US"",""screen_resolution"":[1440,900],""platform"":""MacIntel"",""timezone"":""Europe/Berlin""}","23","1487.3899999999908","","","1559127471949","10","","Heidelberg","[]","Heidelberg","true","false","2295.505000001751"
"","html-voicekey-response","122","673763","0.0-4.118-0.118","cxa196gxj2df0nl","{""user_agent"":""Mozilla/5.0 (Macintosh; Intel Mac OS X 10_14_4) AppleWebKit/537.36 (KHTML, like Gecko) Chrome/74.0.3729.169 Safari/537.36"",""on_chrome"":true,""on_mobile"":false,""language"":""en-US"",""screen_resolution"":[1440,900],""platform"":""MacIntel"",""timezone"":""Europe/Berlin""}","23","5336.09999999844","","","1559127474850","18","","Forchheim","[]","Forchheim","true","false","6178.05999999831"
"","html-voicekey-response","123","677254","0.0-4.119-0.119","cxa196gxj2df0nl","{""user_agent"":""Mozilla/5.0 (Macintosh; Intel Mac OS X 10_14_4) AppleWebKit/537.36 (KHTML, like Gecko) Chrome/74.0.3729.169 Safari/537.36"",""on_chrome"":true,""on_mobile"":false,""language"":""en-US"",""screen_resolution"":[1440,900],""platform"":""MacIntel"",""timezone"":""Europe/Berlin""}","23","1892.7850000016392","","","1559127481634","25","","Osnabrück","[]","Osnabrück","true","false","2885.4950000022072"
"","html-voicekey-response","124","680854","0.0-4.120-0.120","cxa196gxj2df0nl","{""user_agent"":""Mozilla/5.0 (Macintosh; Intel Mac OS X 10_14_4) AppleWebKit/537.36 (KHTML, like Gecko) Chrome/74.0.3729.169 Safari/537.36"",""on_chrome"":true,""on_mobile"":false,""language"":""en-US"",""screen_resolution"":[1440,900],""platform"":""MacIntel"",""timezone"":""Europe/Berlin""}","23","2268.8399999986636","","","1559127485125","21","","Konstanz","[]","Konstanz","true","false","2994.3899999998976"
"","html-voicekey-response","125","683757","0.0-4.121-0.121","cxa196gxj2df0nl","{""user_agent"":""Mozilla/5.0 (Macintosh; Intel Mac OS X 10_14_4) AppleWebKit/537.36 (KHTML, like Gecko) Chrome/74.0.3729.169 Safari/537.36"",""on_chrome"":true,""on_mobile"":false,""language"":""en-US"",""screen_resolution"":[1440,900],""platform"":""MacIntel"",""timezone"":""Europe/Berlin""}","23","1618.1950000007405","","","1559127488725","23","","Stuttgart","[]","Stuttgart","true","false","2294.590000001248"
"","html-voicekey-response","126","686963","0.0-4.122-0.122","cxa196gxj2df0nl","{""user_agent"":""Mozilla/5.0 (Macintosh; Intel Mac OS X 10_14_4) AppleWebKit/537.36 (KHTML, like Gecko) Chrome/74.0.3729.169 Safari/537.36"",""on_chrome"":true,""on_mobile"":false,""language"":""en-US"",""screen_resolution"":[1440,900],""platform"":""MacIntel"",""timezone"":""Europe/Berlin""}","23","1824.1949999991107","","","1559127491628","12","","Dessau","[]","Dessau","true","false","2599.79000000027"
"","html-voicekey-response","127","691245","0.0-4.123-0.123","cxa196gxj2df0nl","{""user_agent"":""Mozilla/5.0 (Macintosh; Intel Mac OS X 10_14_4) AppleWebKit/537.36 (KHTML, like Gecko) Chrome/74.0.3729.169 Safari/537.36"",""on_chrome"":true,""on_mobile"":false,""language"":""en-US"",""screen_resolution"":[1440,900],""platform"":""MacIntel"",""timezone"":""Europe/Berlin""}","23","2902.36500000346","","","1559127494833","18","","Forchheim","[]","Forchheim","true","false","3677.40500000224"
"","html-voicekey-response","128","695148","0.0-4.124-0.124","cxa196gxj2df0nl","{""user_agent"":""Mozilla/5.0 (Macintosh; Intel Mac OS X 10_14_4) AppleWebKit/537.36 (KHTML, like Gecko) Chrome/74.0.3729.169 Safari/537.36"",""on_chrome"":true,""on_mobile"":false,""language"":""en-US"",""screen_resolution"":[1440,900],""platform"":""MacIntel"",""timezone"":""Europe/Berlin""}","23","2319.3599999992643","","","1559127499116","13","","Chemnitz","[]","Chemnitz","true","false","3294.60499999905"
"","html-voicekey-response","129","699270","0.0-4.125-0.125","cxa196gxj2df0nl","{""user_agent"":""Mozilla/5.0 (Macintosh; Intel Mac OS X 10_14_4) AppleWebKit/537.36 (KHTML, like Gecko) Chrome/74.0.3729.169 Safari/537.36"",""on_chrome"":true,""on_mobile"":false,""language"":""en-US"",""screen_resolution"":[1440,900],""platform"":""MacIntel"",""timezone"":""Europe/Berlin""}","23","2824.849999998906","","","1559127503018","18","","Forchheim","[]","Forchheim","true","false","3517.0699999979697"
"","html-voicekey-response","130","702953","0.0-4.126-0.126","cxa196gxj2df0nl","{""user_agent"":""Mozilla/5.0 (Macintosh; Intel Mac OS X 10_14_4) AppleWebKit/537.36 (KHTML, like Gecko) Chrome/74.0.3729.169 Safari/537.36"",""on_chrome"":true,""on_mobile"":false,""language"":""en-US"",""screen_resolution"":[1440,900],""platform"":""MacIntel"",""timezone"":""Europe/Berlin""}","23","2417.84499999797","","","1559127507141","14","","Potsdam","[]","Potsdam","true","false","3076.454999998561"
"","html-voicekey-response","131","706988","0.0-4.127-0.127","cxa196gxj2df0nl","{""user_agent"":""Mozilla/5.0 (Macintosh; Intel Mac OS X 10_14_4) AppleWebKit/537.36 (KHTML, like Gecko) Chrome/74.0.3729.169 Safari/537.36"",""on_chrome"":true,""on_mobile"":false,""language"":""en-US"",""screen_resolution"":[1440,900],""platform"":""MacIntel"",""timezone"":""Europe/Berlin""}","23","2967.8350000011037","","","1559127510824","18","","Forchheim","[]","Forchheim","true","false","3427.2449999989476"
"","html-voicekey-response","132","710931","0.0-4.128-0.128","cxa196gxj2df0nl","{""user_agent"":""Mozilla/5.0 (Macintosh; Intel Mac OS X 10_14_4) AppleWebKit/537.36 (KHTML, like Gecko) Chrome/74.0.3729.169 Safari/537.36"",""on_chrome"":true,""on_mobile"":false,""language"":""en-US"",""screen_resolution"":[1440,900],""platform"":""MacIntel"",""timezone"":""Europe/Berlin""}","23","2611.069999997015","","","1559127514859","15","","Nürnberg","[]","Nürnberg","true","false","3336.6900000000605"
"","html-voicekey-response","133","714530","0.0-4.129-0.129","cxa196gxj2df0nl","{""user_agent"":""Mozilla/5.0 (Macintosh; Intel Mac OS X 10_14_4) AppleWebKit/537.36 (KHTML, like Gecko) Chrome/74.0.3729.169 Safari/537.36"",""on_chrome"":true,""on_mobile"":false,""language"":""en-US"",""screen_resolution"":[1440,900],""platform"":""MacIntel"",""timezone"":""Europe/Berlin""}","23","2485.135000000568","","","1559127518802","18","","Forchheim","[]","Forchheim","true","false","2992.7950000019046"
"","html-voicekey-response","134","718831","0.0-4.130-0.130","cxa196gxj2df0nl","{""user_agent"":""Mozilla/5.0 (Macintosh; Intel Mac OS X 10_14_4) AppleWebKit/537.36 (KHTML, like Gecko) Chrome/74.0.3729.169 Safari/537.36"",""on_chrome"":true,""on_mobile"":false,""language"":""en-US"",""screen_resolution"":[1440,900],""platform"":""MacIntel"",""timezone"":""Europe/Berlin""}","23","2851.695000002836","","","1559127522400","21","","Konstanz","[]","Konstanz","true","false","3695.3300000022864"
"","html-voicekey-response","135","728713","0.0-4.131-0.131","cxa196gxj2df0nl","{""user_agent"":""Mozilla/5.0 (Macintosh; Intel Mac OS X 10_14_4) AppleWebKit/537.36 (KHTML, like Gecko) Chrome/74.0.3729.169 Safari/537.36"",""on_chrome"":true,""on_mobile"":false,""language"":""en-US"",""screen_resolution"":[1440,900],""platform"":""MacIntel"",""timezone"":""Europe/Berlin""}","23","4050.6399999992923","","","1559127526702","18","","","[]","Forchheim","false","false","5875.990000000456"
"","html-voicekey-response","136","732004","0.0-4.132-0.132","cxa196gxj2df0nl","{""user_agent"":""Mozilla/5.0 (Macintosh; Intel Mac OS X 10_14_4) AppleWebKit/537.36 (KHTML, like Gecko) Chrome/74.0.3729.169 Safari/537.36"",""on_chrome"":true,""on_mobile"":false,""language"":""en-US"",""screen_resolution"":[1440,900],""platform"":""MacIntel"",""timezone"":""Europe/Berlin""}","23","1934.4849999996136","","","1559127536585","16","","Schwangau","[]","Schwangau","true","false","2685.0199999971082"
"","html-voicekey-response","137","740405","0.0-4.133-0.133","cxa196gxj2df0nl","{""user_agent"":""Mozilla/5.0 (Macintosh; Intel Mac OS X 10_14_4) AppleWebKit/537.36 (KHTML, like Gecko) Chrome/74.0.3729.169 Safari/537.36"",""on_chrome"":true,""on_mobile"":false,""language"":""en-US"",""screen_resolution"":[1440,900],""platform"":""MacIntel"",""timezone"":""Europe/Berlin""}","23","7216.6799999994455","","","1559127539877","18","","Forchheim","[]","Forchheim","true","false","7792.649999999441"
"","html-voicekey-response","138","743362","0.0-4.134-0.134","cxa196gxj2df0nl","{""user_agent"":""Mozilla/5.0 (Macintosh; Intel Mac OS X 10_14_4) AppleWebKit/537.36 (KHTML, like Gecko) Chrome/74.0.3729.169 Safari/537.36"",""on_chrome"":true,""on_mobile"":false,""language"":""en-US"",""screen_resolution"":[1440,900],""platform"":""MacIntel"",""timezone"":""Europe/Berlin""}","23","1707.0000000000932","","","1559127548278","21","","Konstanz","[]","Konstanz","true","false","2349.074999998207"
"","html-voicekey-response","139","746345","0.0-4.135-0.135","cxa196gxj2df0nl","{""user_agent"":""Mozilla/5.0 (Macintosh; Intel Mac OS X 10_14_4) AppleWebKit/537.36 (KHTML, like Gecko) Chrome/74.0.3729.169 Safari/537.36"",""on_chrome"":true,""on_mobile"":false,""language"":""en-US"",""screen_resolution"":[1440,900],""platform"":""MacIntel"",""timezone"":""Europe/Berlin""}","23","1767.3599999996136","","","1559127551234","18","","Forchheim","[]","Forchheim","true","false","2376.0600000022678"
"","html-voicekey-response","140","751896","0.0-4.136-0.136","cxa196gxj2df0nl","{""user_agent"":""Mozilla/5.0 (Macintosh; Intel Mac OS X 10_14_4) AppleWebKit/537.36 (KHTML, like Gecko) Chrome/74.0.3729.169 Safari/537.36"",""on_chrome"":true,""on_mobile"":false,""language"":""en-US"",""screen_resolution"":[1440,900],""platform"":""MacIntel"",""timezone"":""Europe/Berlin""}","23","4333.389999997778","","","1559127554216","3","","Ingolstadt","[]","Ingolstadt","true","false","4943.8799999988405"
"","html-voicekey-response","141","757340","0.0-4.137-0.137","cxa196gxj2df0nl","{""user_agent"":""Mozilla/5.0 (Macintosh; Intel Mac OS X 10_14_4) AppleWebKit/537.36 (KHTML, like Gecko) Chrome/74.0.3729.169 Safari/537.36"",""on_chrome"":true,""on_mobile"":false,""language"":""en-US"",""screen_resolution"":[1440,900],""platform"":""MacIntel"",""timezone"":""Europe/Berlin""}","23","100","","","1559127559769","18","","Forchheim","[]","Forchheim","true","false","4835.589999998803"
"","html-voicekey-response","142","759940","0.0-4.138-0.138","cxa196gxj2df0nl","{""user_agent"":""Mozilla/5.0 (Macintosh; Intel Mac OS X 10_14_4) AppleWebKit/537.36 (KHTML, like Gecko) Chrome/74.0.3729.169 Safari/537.36"",""on_chrome"":true,""on_mobile"":false,""language"":""en-US"",""screen_resolution"":[1440,900],""platform"":""MacIntel"",""timezone"":""Europe/Berlin""}","23","1217.2300000000746","","","1559127565211","17","","Leipzig","[]","Leipzig","true","false","1993.660000000149"
"","html-voicekey-response","143","762690","0.0-4.139-0.139","cxa196gxj2df0nl","{""user_agent"":""Mozilla/5.0 (Macintosh; Intel Mac OS X 10_14_4) AppleWebKit/537.36 (KHTML, like Gecko) Chrome/74.0.3729.169 Safari/537.36"",""on_chrome"":true,""on_mobile"":false,""language"":""en-US"",""screen_resolution"":[1440,900],""platform"":""MacIntel"",""timezone"":""Europe/Berlin""}","23","1465.8700000017184","","","1559127567813","18","","Forchheim","[]","Forchheim","true","false","2141.234999999171"
"","html-voicekey-response","144","766247","0.0-4.140-0.140","cxa196gxj2df0nl","{""user_agent"":""Mozilla/5.0 (Macintosh; Intel Mac OS X 10_14_4) AppleWebKit/537.36 (KHTML, like Gecko) Chrome/74.0.3729.169 Safari/537.36"",""on_chrome"":true,""on_mobile"":false,""language"":""en-US"",""screen_resolution"":[1440,900],""platform"":""MacIntel"",""timezone"":""Europe/Berlin""}","23","1724.0350000009407","","","1559127570563","11","","Alfeld","[]","Alfeld","true","false","2949.3250000013504"
"","html-voicekey-response","145","769031","0.0-4.141-0.141","cxa196gxj2df0nl","{""user_agent"":""Mozilla/5.0 (Macintosh; Intel Mac OS X 10_14_4) AppleWebKit/537.36 (KHTML, like Gecko) Chrome/74.0.3729.169 Safari/537.36"",""on_chrome"":true,""on_mobile"":false,""language"":""en-US"",""screen_resolution"":[1440,900],""platform"":""MacIntel"",""timezone"":""Europe/Berlin""}","23","1435.1199999999722","","","1559127574119","23","","Stuttgart","[]","Stuttgart","true","false","2177.1650000009686"
"","html-voicekey-response","146","772097","0.0-4.142-0.142","cxa196gxj2df0nl","{""user_agent"":""Mozilla/5.0 (Macintosh; Intel Mac OS X 10_14_4) AppleWebKit/537.36 (KHTML, like Gecko) Chrome/74.0.3729.169 Safari/537.36"",""on_chrome"":true,""on_mobile"":false,""language"":""en-US"",""screen_resolution"":[1440,900],""platform"":""MacIntel"",""timezone"":""Europe/Berlin""}","23","1499.7500000006753","","","1559127576904","20","","Hamburg ","[]","Hamburg ","true","false","2458.2399999999907"
"","html-voicekey-response","147","776438","0.0-4.143-0.143","cxa196gxj2df0nl","{""user_agent"":""Mozilla/5.0 (Macintosh; Intel Mac OS X 10_14_4) AppleWebKit/537.36 (KHTML, like Gecko) Chrome/74.0.3729.169 Safari/537.36"",""on_chrome"":true,""on_mobile"":false,""language"":""en-US"",""screen_resolution"":[1440,900],""platform"":""MacIntel"",""timezone"":""Europe/Berlin""}","23","2532.8900000002236","","","1559127579970","18","","Forchheim","[]","Forchheim","true","false","3732.484999996843"
"","html-voicekey-response","148","779755","0.0-4.144-0.144","cxa196gxj2df0nl","{""user_agent"":""Mozilla/5.0 (Macintosh; Intel Mac OS X 10_14_4) AppleWebKit/537.36 (KHTML, like Gecko) Chrome/74.0.3729.169 Safari/537.36"",""on_chrome"":true,""on_mobile"":false,""language"":""en-US"",""screen_resolution"":[1440,900],""platform"":""MacIntel"",""timezone"":""Europe/Berlin""}","23","2084.2849999988453","","","1559127584310","19","","Frankfurt","[]","Frankfurt","true","false","2710.219999997178"
"","html-voicekey-response","149","782871","0.0-4.145-0.145","cxa196gxj2df0nl","{""user_agent"":""Mozilla/5.0 (Macintosh; Intel Mac OS X 10_14_4) AppleWebKit/537.36 (KHTML, like Gecko) Chrome/74.0.3729.169 Safari/537.36"",""on_chrome"":true,""on_mobile"":false,""language"":""en-US"",""screen_resolution"":[1440,900],""platform"":""MacIntel"",""timezone"":""Europe/Berlin""}","23","1780.9699999978534","","","1559127587629","8","","Gotha","[]","Gotha","true","false","2507.8450000000885"
"","html-voicekey-response","150","785979","0.0-4.146-0.146","cxa196gxj2df0nl","{""user_agent"":""Mozilla/5.0 (Macintosh; Intel Mac OS X 10_14_4) AppleWebKit/537.36 (KHTML, like Gecko) Chrome/74.0.3729.169 Safari/537.36"",""on_chrome"":true,""on_mobile"":false,""language"":""en-US"",""screen_resolution"":[1440,900],""platform"":""MacIntel"",""timezone"":""Europe/Berlin""}","23","1806.5949999998325","","","1559127590745","18","","Forchheim","[]","Forchheim","true","false","2498.730000003008"
"","html-voicekey-response","151","788796","0.0-4.147-0.147","cxa196gxj2df0nl","{""user_agent"":""Mozilla/5.0 (Macintosh; Intel Mac OS X 10_14_4) AppleWebKit/537.36 (KHTML, like Gecko) Chrome/74.0.3729.169 Safari/537.36"",""on_chrome"":true,""on_mobile"":false,""language"":""en-US"",""screen_resolution"":[1440,900],""platform"":""MacIntel"",""timezone"":""Europe/Berlin""}","23","1699.7800000005868","","","1559127593853","24","","Köln","[]","Köln","true","false","2207.9149999989895"
"","html-voicekey-response","152","792263","0.0-4.148-0.148","cxa196gxj2df0nl","{""user_agent"":""Mozilla/5.0 (Macintosh; Intel Mac OS X 10_14_4) AppleWebKit/537.36 (KHTML, like Gecko) Chrome/74.0.3729.169 Safari/537.36"",""on_chrome"":true,""on_mobile"":false,""language"":""en-US"",""screen_resolution"":[1440,900],""platform"":""MacIntel"",""timezone"":""Europe/Berlin""}","23","2116.739999999269","","","1559127596668","22","","Bamberg","[]","Bamberg","true","false","2859.309999999823"
"","html-voicekey-response","153","795555","0.0-4.149-0.149","cxa196gxj2df0nl","{""user_agent"":""Mozilla/5.0 (Macintosh; Intel Mac OS X 10_14_4) AppleWebKit/537.36 (KHTML, like Gecko) Chrome/74.0.3729.169 Safari/537.36"",""on_chrome"":true,""on_mobile"":false,""language"":""en-US"",""screen_resolution"":[1440,900],""platform"":""MacIntel"",""timezone"":""Europe/Berlin""}","23","1615.990000000084","","","1559127600136","27","","Tübingen","[]","Tübingen","true","true","2683.8499999976484"
"","html-voicekey-response","154","799288","0.0-4.150-0.150","cxa196gxj2df0nl","{""user_agent"":""Mozilla/5.0 (Macintosh; Intel Mac OS X 10_14_4) AppleWebKit/537.36 (KHTML, like Gecko) Chrome/74.0.3729.169 Safari/537.36"",""on_chrome"":true,""on_mobile"":false,""language"":""en-US"",""screen_resolution"":[1440,900],""platform"":""MacIntel"",""timezone"":""Europe/Berlin""}","23","2233.5750000000467","","","1559127603428","21","","Konstanz","[]","Konstanz","true","false","3124.9600000010105"
"","html-voicekey-response","155","805741","0.0-4.151-0.151","cxa196gxj2df0nl","{""user_agent"":""Mozilla/5.0 (Macintosh; Intel Mac OS X 10_14_4) AppleWebKit/537.36 (KHTML, like Gecko) Chrome/74.0.3729.169 Safari/537.36"",""on_chrome"":true,""on_mobile"":false,""language"":""en-US"",""screen_resolution"":[1440,900],""platform"":""MacIntel"",""timezone"":""Europe/Berlin""}","23","5133.560000000032","","","1559127607160","27","","Tübingen","[]","Tübingen","true","false","5843.1299999974435"
"","html-voicekey-response","156","810362","0.0-4.152-0.152","cxa196gxj2df0nl","{""user_agent"":""Mozilla/5.0 (Macintosh; Intel Mac OS X 10_14_4) AppleWebKit/537.36 (KHTML, like Gecko) Chrome/74.0.3729.169 Safari/537.36"",""on_chrome"":true,""on_mobile"":false,""language"":""en-US"",""screen_resolution"":[1440,900],""platform"":""MacIntel"",""timezone"":""Europe/Berlin""}","23","2688.4950000000886","","","1559127613614","28","","Regensburg","[]","Regensburg","true","true","4013.885000000242"
"","html-voicekey-response","157","813112","0.0-4.153-0.153","cxa196gxj2df0nl","{""user_agent"":""Mozilla/5.0 (Macintosh; Intel Mac OS X 10_14_4) AppleWebKit/537.36 (KHTML, like Gecko) Chrome/74.0.3729.169 Safari/537.36"",""on_chrome"":true,""on_mobile"":false,""language"":""en-US"",""screen_resolution"":[1440,900],""platform"":""MacIntel"",""timezone"":""Europe/Berlin""}","23","1349.2349999996136","","","1559127618236","29","","Jena","[]","Jena","true","true","2141.255000002333"
"","html-voicekey-response","158","816095","0.0-4.154-0.154","cxa196gxj2df0nl","{""user_agent"":""Mozilla/5.0 (Macintosh; Intel Mac OS X 10_14_4) AppleWebKit/537.36 (KHTML, like Gecko) Chrome/74.0.3729.169 Safari/537.36"",""on_chrome"":true,""on_mobile"":false,""language"":""en-US"",""screen_resolution"":[1440,900],""platform"":""MacIntel"",""timezone"":""Europe/Berlin""}","23","1781.4200000010665","","","1559127620986","28","","Regensburg","[]","Regensburg","true","false","2374.444999997737"
"","html-voicekey-response","159","818173","0.0-4.155-0.155","cxa196gxj2df0nl","{""user_agent"":""Mozilla/5.0 (Macintosh; Intel Mac OS X 10_14_4) AppleWebKit/537.36 (KHTML, like Gecko) Chrome/74.0.3729.169 Safari/537.36"",""on_chrome"":true,""on_mobile"":false,""language"":""en-US"",""screen_resolution"":[1440,900],""platform"":""MacIntel"",""timezone"":""Europe/Berlin""}","23","100","","","1559127623968","29","","Jena","[]","Jena","true","false","1469.7950000009732"
"","html-voicekey-response","160","822772","0.0-4.156-0.156","cxa196gxj2df0nl","{""user_agent"":""Mozilla/5.0 (Macintosh; Intel Mac OS X 10_14_4) AppleWebKit/537.36 (KHTML, like Gecko) Chrome/74.0.3729.169 Safari/537.36"",""on_chrome"":true,""on_mobile"":false,""language"":""en-US"",""screen_resolution"":[1440,900],""platform"":""MacIntel"",""timezone"":""Europe/Berlin""}","23","3248.744999998808","","","1559127626046","18","","Forchheim","[]","Forchheim","true","false","3991.280000002007"
"","html-voicekey-response","161","826373","0.0-4.157-0.157","cxa196gxj2df0nl","{""user_agent"":""Mozilla/5.0 (Macintosh; Intel Mac OS X 10_14_4) AppleWebKit/537.36 (KHTML, like Gecko) Chrome/74.0.3729.169 Safari/537.36"",""on_chrome"":true,""on_mobile"":false,""language"":""en-US"",""screen_resolution"":[1440,900],""platform"":""MacIntel"",""timezone"":""Europe/Berlin""}","23","1915.3800000002143","","","1559127630647","30","","Bremen","[]","Bremen","true","true","2990.6350000019884"
"","html-voicekey-response","162","829318","0.0-4.158-0.158","cxa196gxj2df0nl","{""user_agent"":""Mozilla/5.0 (Macintosh; Intel Mac OS X 10_14_4) AppleWebKit/537.36 (KHTML, like Gecko) Chrome/74.0.3729.169 Safari/537.36"",""on_chrome"":true,""on_mobile"":false,""language"":""en-US"",""screen_resolution"":[1440,900],""platform"":""MacIntel"",""timezone"":""Europe/Berlin""}","23","1609.839999999013","","","1559127634248","18","","Forchheim","[]","Forchheim","true","false","2334.7799999973504"
"","html-voicekey-response","163","832235","0.0-4.159-0.159","cxa196gxj2df0nl","{""user_agent"":""Mozilla/5.0 (Macintosh; Intel Mac OS X 10_14_4) AppleWebKit/537.36 (KHTML, like Gecko) Chrome/74.0.3729.169 Safari/537.36"",""on_chrome"":true,""on_mobile"":false,""language"":""en-US"",""screen_resolution"":[1440,900],""platform"":""MacIntel"",""timezone"":""Europe/Berlin""}","23","1448.4899999968243","","","1559127637193","30","","Bremen","[]","Bremen","true","false","2306.82999999763"
