"value","trial_type","trial_index","time_elapsed","internal_node_id","subject","browser_info","participant_number","rt","responses","view_history","presentation_start_time","id","text","response","keypresses","answer","correct","study","experimenter_rt"
"","call-function","0","5","0.0-0.0","jkzqqvnpokh397z","{""user_agent"":""Mozilla/5.0 (Macintosh; Intel Mac OS X 10_14_4) AppleWebKit/537.36 (KHTML, like Gecko) Chrome/74.0.3729.169 Safari/537.36"",""on_chrome"":true,""on_mobile"":false,""language"":""en-US"",""screen_resolution"":[1440,900],""platform"":""MacIntel"",""timezone"":""Europe/Berlin""}","24","","","","","","","","","","","",""
"","survey-text","1","4152","0.0-1.0","jkzqqvnpokh397z","{""user_agent"":""Mozilla/5.0 (Macintosh; Intel Mac OS X 10_14_4) AppleWebKit/537.36 (KHTML, like Gecko) Chrome/74.0.3729.169 Safari/537.36"",""on_chrome"":true,""on_mobile"":false,""language"":""en-US"",""screen_resolution"":[1440,900],""platform"":""MacIntel"",""timezone"":""Europe/Berlin""}","24","4145","{""Q0"":""24""}","","","","","","","","","",""
"","instructions","2","110367","0.0-2.0","jkzqqvnpokh397z","{""user_agent"":""Mozilla/5.0 (Macintosh; Intel Mac OS X 10_14_4) AppleWebKit/537.36 (KHTML, like Gecko) Chrome/74.0.3729.169 Safari/537.36"",""on_chrome"":true,""on_mobile"":false,""language"":""en-US"",""screen_resolution"":[1440,900],""platform"":""MacIntel"",""timezone"":""Europe/Berlin""}","24","106215","","[{""page_index"":0,""viewing_time"":106214}]","","","","","","","","",""
"","call-function","3","110367","0.0-3.0","jkzqqvnpokh397z","{""user_agent"":""Mozilla/5.0 (Macintosh; Intel Mac OS X 10_14_4) AppleWebKit/537.36 (KHTML, like Gecko) Chrome/74.0.3729.169 Safari/537.36"",""on_chrome"":true,""on_mobile"":false,""language"":""en-US"",""screen_resolution"":[1440,900],""platform"":""MacIntel"",""timezone"":""Europe/Berlin""}","24","","","","","","","","","","","",""
"","html-voicekey-response","4","113247","0.0-4.0-0.0","jkzqqvnpokh397z","{""user_agent"":""Mozilla/5.0 (Macintosh; Intel Mac OS X 10_14_4) AppleWebKit/537.36 (KHTML, like Gecko) Chrome/74.0.3729.169 Safari/537.36"",""on_chrome"":true,""on_mobile"":false,""language"":""en-US"",""screen_resolution"":[1440,900],""platform"":""MacIntel"",""timezone"":""Europe/Berlin""}","24","1722.214999999624","","","1559135245218","1","","Magdeburg","[]","Magdeburg","true","true","2274.489999999787"
"","html-voicekey-response","5","118629","0.0-4.1-0.1","jkzqqvnpokh397z","{""user_agent"":""Mozilla/5.0 (Macintosh; Intel Mac OS X 10_14_4) AppleWebKit/537.36 (KHTML, like Gecko) Chrome/74.0.3729.169 Safari/537.36"",""on_chrome"":true,""on_mobile"":false,""language"":""en-US"",""screen_resolution"":[1440,900],""platform"":""MacIntel"",""timezone"":""Europe/Berlin""}","24","3702.0250000003493","","","1559135248099","1","","Magdeburg","[]","Magdeburg","true","false","4777.774999998655"
"","html-voicekey-response","6","121396","0.0-4.2-0.2","jkzqqvnpokh397z","{""user_agent"":""Mozilla/5.0 (Macintosh; Intel Mac OS X 10_14_4) AppleWebKit/537.36 (KHTML, like Gecko) Chrome/74.0.3729.169 Safari/537.36"",""on_chrome"":true,""on_mobile"":false,""language"":""en-US"",""screen_resolution"":[1440,900],""platform"":""MacIntel"",""timezone"":""Europe/Berlin""}","24","100","","","1559135253479","2","","Berlin","[]","Berlin","true","true","2164.170000000013"
"","html-voicekey-response","7","124152","0.0-4.3-0.3","jkzqqvnpokh397z","{""user_agent"":""Mozilla/5.0 (Macintosh; Intel Mac OS X 10_14_4) AppleWebKit/537.36 (KHTML, like Gecko) Chrome/74.0.3729.169 Safari/537.36"",""on_chrome"":true,""on_mobile"":false,""language"":""en-US"",""screen_resolution"":[1440,900],""platform"":""MacIntel"",""timezone"":""Europe/Berlin""}","24","1544.4750000004483","","","1559135256245","2","","Berlin","[]","Berlin","true","false","2154.320000001462"
"","html-voicekey-response","8","128502","0.0-4.4-0.4","jkzqqvnpokh397z","{""user_agent"":""Mozilla/5.0 (Macintosh; Intel Mac OS X 10_14_4) AppleWebKit/537.36 (KHTML, like Gecko) Chrome/74.0.3729.169 Safari/537.36"",""on_chrome"":true,""on_mobile"":false,""language"":""en-US"",""screen_resolution"":[1440,900],""platform"":""MacIntel"",""timezone"":""Europe/Berlin""}","24","2488.1900000016963","","","1559135259002","3","","Ingolstadt","[]","Ingolstadt","true","true","3747.285000001284"
"","html-voicekey-response","9","131968","0.0-4.5-0.5","jkzqqvnpokh397z","{""user_agent"":""Mozilla/5.0 (Macintosh; Intel Mac OS X 10_14_4) AppleWebKit/537.36 (KHTML, like Gecko) Chrome/74.0.3729.169 Safari/537.36"",""on_chrome"":true,""on_mobile"":false,""language"":""en-US"",""screen_resolution"":[1440,900],""platform"":""MacIntel"",""timezone"":""Europe/Berlin""}","24","1572.1749999991794","","","1559135263351","4","","Würzburg","[]","Würzburg","true","true","2863.9299999995274"
"","html-voicekey-response","10","134994","0.0-4.6-0.6","jkzqqvnpokh397z","{""user_agent"":""Mozilla/5.0 (Macintosh; Intel Mac OS X 10_14_4) AppleWebKit/537.36 (KHTML, like Gecko) Chrome/74.0.3729.169 Safari/537.36"",""on_chrome"":true,""on_mobile"":false,""language"":""en-US"",""screen_resolution"":[1440,900],""platform"":""MacIntel"",""timezone"":""Europe/Berlin""}","24","1114.639999997808","","","1559135266817","3","","Ingolstadt","[]","Ingolstadt","true","false","2423.739999998361"
"","html-voicekey-response","11","137545","0.0-4.7-0.7","jkzqqvnpokh397z","{""user_agent"":""Mozilla/5.0 (Macintosh; Intel Mac OS X 10_14_4) AppleWebKit/537.36 (KHTML, like Gecko) Chrome/74.0.3729.169 Safari/537.36"",""on_chrome"":true,""on_mobile"":false,""language"":""en-US"",""screen_resolution"":[1440,900],""platform"":""MacIntel"",""timezone"":""Europe/Berlin""}","24","1156.1649999983551","","","1559135269843","4","","Würzburg","[]","Würzburg","true","false","1948.8100000016857"
"","html-voicekey-response","12","140844","0.0-4.8-0.8","jkzqqvnpokh397z","{""user_agent"":""Mozilla/5.0 (Macintosh; Intel Mac OS X 10_14_4) AppleWebKit/537.36 (KHTML, like Gecko) Chrome/74.0.3729.169 Safari/537.36"",""on_chrome"":true,""on_mobile"":false,""language"":""en-US"",""screen_resolution"":[1440,900],""platform"":""MacIntel"",""timezone"":""Europe/Berlin""}","24","1572.0100000015286","","","1559135272394","5","","Aachen","[]","Aachen","true","true","2696.9349999999395"
"","html-voicekey-response","13","144062","0.0-4.9-0.9","jkzqqvnpokh397z","{""user_agent"":""Mozilla/5.0 (Macintosh; Intel Mac OS X 10_14_4) AppleWebKit/537.36 (KHTML, like Gecko) Chrome/74.0.3729.169 Safari/537.36"",""on_chrome"":true,""on_mobile"":false,""language"":""en-US"",""screen_resolution"":[1440,900],""platform"":""MacIntel"",""timezone"":""Europe/Berlin""}","24","1272.1199999994774","","","1559135275694","6","","Dresden","[]","Dresden","true","true","2615.0200000010955"
"","html-voicekey-response","14","147119","0.0-4.10-0.10","jkzqqvnpokh397z","{""user_agent"":""Mozilla/5.0 (Macintosh; Intel Mac OS X 10_14_4) AppleWebKit/537.36 (KHTML, like Gecko) Chrome/74.0.3729.169 Safari/537.36"",""on_chrome"":true,""on_mobile"":false,""language"":""en-US"",""screen_resolution"":[1440,900],""platform"":""MacIntel"",""timezone"":""Europe/Berlin""}","24","1929.934999998141","","","1559135278911","5","","Aachen","[]","Aachen","true","false","2455.7949999980337"
"","html-voicekey-response","15","149953","0.0-4.11-0.11","jkzqqvnpokh397z","{""user_agent"":""Mozilla/5.0 (Macintosh; Intel Mac OS X 10_14_4) AppleWebKit/537.36 (KHTML, like Gecko) Chrome/74.0.3729.169 Safari/537.36"",""on_chrome"":true,""on_mobile"":false,""language"":""en-US"",""screen_resolution"":[1440,900],""platform"":""MacIntel"",""timezone"":""Europe/Berlin""}","24","1555.9699999992795","","","1559135281968","6","","Dresden","[]","Dresden","true","false","2231.309999999212"
"","html-voicekey-response","16","153753","0.0-4.12-0.12","jkzqqvnpokh397z","{""user_agent"":""Mozilla/5.0 (Macintosh; Intel Mac OS X 10_14_4) AppleWebKit/537.36 (KHTML, like Gecko) Chrome/74.0.3729.169 Safari/537.36"",""on_chrome"":true,""on_mobile"":false,""language"":""en-US"",""screen_resolution"":[1440,900],""platform"":""MacIntel"",""timezone"":""Europe/Berlin""}","24","1955.9349999997999","","","1559135284802","7","","Erfurt","[]","Erfurt","true","true","3198.339999999007"
"","html-voicekey-response","17","159709","0.0-4.13-0.13","jkzqqvnpokh397z","{""user_agent"":""Mozilla/5.0 (Macintosh; Intel Mac OS X 10_14_4) AppleWebKit/537.36 (KHTML, like Gecko) Chrome/74.0.3729.169 Safari/537.36"",""on_chrome"":true,""on_mobile"":false,""language"":""en-US"",""screen_resolution"":[1440,900],""platform"":""MacIntel"",""timezone"":""Europe/Berlin""}","24","4794.789999997947","","","1559135288602","1","","Magdeburg","[]","Magdeburg","true","false","5354.1000000004715"
"","html-voicekey-response","18","163559","0.0-4.14-0.14","jkzqqvnpokh397z","{""user_agent"":""Mozilla/5.0 (Macintosh; Intel Mac OS X 10_14_4) AppleWebKit/537.36 (KHTML, like Gecko) Chrome/74.0.3729.169 Safari/537.36"",""on_chrome"":true,""on_mobile"":false,""language"":""en-US"",""screen_resolution"":[1440,900],""platform"":""MacIntel"",""timezone"":""Europe/Berlin""}","24","2688.479999998736","","","1559135294559","7","","Erfurt","[]","Erfurt","true","false","3247.0549999998184"
"","html-voicekey-response","19","166200","0.0-4.15-0.15","jkzqqvnpokh397z","{""user_agent"":""Mozilla/5.0 (Macintosh; Intel Mac OS X 10_14_4) AppleWebKit/537.36 (KHTML, like Gecko) Chrome/74.0.3729.169 Safari/537.36"",""on_chrome"":true,""on_mobile"":false,""language"":""en-US"",""screen_resolution"":[1440,900],""platform"":""MacIntel"",""timezone"":""Europe/Berlin""}","24","1372.7299999971642","","","1559135298408","2","","Berlin","[]","Berlin","true","false","2038.8849999981176"
"","html-voicekey-response","20","169884","0.0-4.16-0.16","jkzqqvnpokh397z","{""user_agent"":""Mozilla/5.0 (Macintosh; Intel Mac OS X 10_14_4) AppleWebKit/537.36 (KHTML, like Gecko) Chrome/74.0.3729.169 Safari/537.36"",""on_chrome"":true,""on_mobile"":false,""language"":""en-US"",""screen_resolution"":[1440,900],""platform"":""MacIntel"",""timezone"":""Europe/Berlin""}","24","2255.810000000411","","","1559135301049","8","","Gotha","[]","Gotha","true","true","3081.6950000007637"
"","html-voicekey-response","21","172618","0.0-4.17-0.17","jkzqqvnpokh397z","{""user_agent"":""Mozilla/5.0 (Macintosh; Intel Mac OS X 10_14_4) AppleWebKit/537.36 (KHTML, like Gecko) Chrome/74.0.3729.169 Safari/537.36"",""on_chrome"":true,""on_mobile"":false,""language"":""en-US"",""screen_resolution"":[1440,900],""platform"":""MacIntel"",""timezone"":""Europe/Berlin""}","24","1321.505000001553","","","1559135304734","9","","München","[]","München","true","true","2130.9650000002875"
"","html-voicekey-response","22","174952","0.0-4.18-0.18","jkzqqvnpokh397z","{""user_agent"":""Mozilla/5.0 (Macintosh; Intel Mac OS X 10_14_4) AppleWebKit/537.36 (KHTML, like Gecko) Chrome/74.0.3729.169 Safari/537.36"",""on_chrome"":true,""on_mobile"":false,""language"":""en-US"",""screen_resolution"":[1440,900],""platform"":""MacIntel"",""timezone"":""Europe/Berlin""}","24","1103.5650000029186","","","1559135307467","8","","Gotha","[]","Gotha","true","false","1729.5850000009523"
"","html-voicekey-response","23","178024","0.0-4.19-0.19","jkzqqvnpokh397z","{""user_agent"":""Mozilla/5.0 (Macintosh; Intel Mac OS X 10_14_4) AppleWebKit/537.36 (KHTML, like Gecko) Chrome/74.0.3729.169 Safari/537.36"",""on_chrome"":true,""on_mobile"":false,""language"":""en-US"",""screen_resolution"":[1440,900],""platform"":""MacIntel"",""timezone"":""Europe/Berlin""}","24","1810.1949999998674","","","1559135309802","9","","München","[]","München","true","false","2469.05500000139"
"","html-voicekey-response","24","183924","0.0-4.20-0.20","jkzqqvnpokh397z","{""user_agent"":""Mozilla/5.0 (Macintosh; Intel Mac OS X 10_14_4) AppleWebKit/537.36 (KHTML, like Gecko) Chrome/74.0.3729.169 Safari/537.36"",""on_chrome"":true,""on_mobile"":false,""language"":""en-US"",""screen_resolution"":[1440,900],""platform"":""MacIntel"",""timezone"":""Europe/Berlin""}","24","4605.0699999994595","","","1559135312873","3","","Ingolstadt","[]","Ingolstadt","true","false","5297.764999999345"
"","html-voicekey-response","25","186697","0.0-4.21-0.21","jkzqqvnpokh397z","{""user_agent"":""Mozilla/5.0 (Macintosh; Intel Mac OS X 10_14_4) AppleWebKit/537.36 (KHTML, like Gecko) Chrome/74.0.3729.169 Safari/537.36"",""on_chrome"":true,""on_mobile"":false,""language"":""en-US"",""screen_resolution"":[1440,900],""platform"":""MacIntel"",""timezone"":""Europe/Berlin""}","24","1621.6199999997393","","","1559135318774","4","","Würzburg","[]","Würzburg","true","false","2170.5699999984063"
"","html-voicekey-response","26","189680","0.0-4.22-0.22","jkzqqvnpokh397z","{""user_agent"":""Mozilla/5.0 (Macintosh; Intel Mac OS X 10_14_4) AppleWebKit/537.36 (KHTML, like Gecko) Chrome/74.0.3729.169 Safari/537.36"",""on_chrome"":true,""on_mobile"":false,""language"":""en-US"",""screen_resolution"":[1440,900],""platform"":""MacIntel"",""timezone"":""Europe/Berlin""}","24","1338.399999998574","","","1559135321547","10","","Heidelberg","[]","Heidelberg","true","true","2380.809999998746"
"","html-voicekey-response","27","201147","0.0-4.23-0.23","jkzqqvnpokh397z","{""user_agent"":""Mozilla/5.0 (Macintosh; Intel Mac OS X 10_14_4) AppleWebKit/537.36 (KHTML, like Gecko) Chrome/74.0.3729.169 Safari/537.36"",""on_chrome"":true,""on_mobile"":false,""language"":""en-US"",""screen_resolution"":[1440,900],""platform"":""MacIntel"",""timezone"":""Europe/Berlin""}","24","6136.680000001279","","","1559135324531","5","","","[]","Aachen","false","false","7462.745000000723"
"","html-voicekey-response","28","209158","0.0-4.24-0.24","jkzqqvnpokh397z","{""user_agent"":""Mozilla/5.0 (Macintosh; Intel Mac OS X 10_14_4) AppleWebKit/537.36 (KHTML, like Gecko) Chrome/74.0.3729.169 Safari/537.36"",""on_chrome"":true,""on_mobile"":false,""language"":""en-US"",""screen_resolution"":[1440,900],""platform"":""MacIntel"",""timezone"":""Europe/Berlin""}","24","100","","","1559135335997","10","","","[]","Heidelberg","false","false","4007.870000001276"
"","html-voicekey-response","29","211277","0.0-4.25-0.25","jkzqqvnpokh397z","{""user_agent"":""Mozilla/5.0 (Macintosh; Intel Mac OS X 10_14_4) AppleWebKit/537.36 (KHTML, like Gecko) Chrome/74.0.3729.169 Safari/537.36"",""on_chrome"":true,""on_mobile"":false,""language"":""en-US"",""screen_resolution"":[1440,900],""platform"":""MacIntel"",""timezone"":""Europe/Berlin""}","24","100","","","1559135344008","1","","Magdeburg","[]","Magdeburg","true","false","1513.3350000032806"
"","html-voicekey-response","30","214715","0.0-4.26-0.26","jkzqqvnpokh397z","{""user_agent"":""Mozilla/5.0 (Macintosh; Intel Mac OS X 10_14_4) AppleWebKit/537.36 (KHTML, like Gecko) Chrome/74.0.3729.169 Safari/537.36"",""on_chrome"":true,""on_mobile"":false,""language"":""en-US"",""screen_resolution"":[1440,900],""platform"":""MacIntel"",""timezone"":""Europe/Berlin""}","24","2260.624999997008","","","1559135346127","6","","Dresden","[]","Dresden","true","false","2836.104999998497"
"","html-voicekey-response","31","217248","0.0-4.27-0.27","jkzqqvnpokh397z","{""user_agent"":""Mozilla/5.0 (Macintosh; Intel Mac OS X 10_14_4) AppleWebKit/537.36 (KHTML, like Gecko) Chrome/74.0.3729.169 Safari/537.36"",""on_chrome"":true,""on_mobile"":false,""language"":""en-US"",""screen_resolution"":[1440,900],""platform"":""MacIntel"",""timezone"":""Europe/Berlin""}","24","1320.2299999992015","","","1559135349567","7","","Erfurt","[]","Erfurt","true","false","1928.9599999974598"
"","html-voicekey-response","32","219715","0.0-4.28-0.28","jkzqqvnpokh397z","{""user_agent"":""Mozilla/5.0 (Macintosh; Intel Mac OS X 10_14_4) AppleWebKit/537.36 (KHTML, like Gecko) Chrome/74.0.3729.169 Safari/537.36"",""on_chrome"":true,""on_mobile"":false,""language"":""en-US"",""screen_resolution"":[1440,900],""platform"":""MacIntel"",""timezone"":""Europe/Berlin""}","24","1372.6599999989326","","","1559135352098","8","","Gotha","[]","Gotha","true","false","1864.2350000009174"
"","html-voicekey-response","33","222644","0.0-4.29-0.29","jkzqqvnpokh397z","{""user_agent"":""Mozilla/5.0 (Macintosh; Intel Mac OS X 10_14_4) AppleWebKit/537.36 (KHTML, like Gecko) Chrome/74.0.3729.169 Safari/537.36"",""on_chrome"":true,""on_mobile"":false,""language"":""en-US"",""screen_resolution"":[1440,900],""platform"":""MacIntel"",""timezone"":""Europe/Berlin""}","24","1538.744999999681","","","1559135354565","9","","München","[]","München","true","false","2325.7599999997183"
"","html-voicekey-response","34","231927","0.0-4.30-0.30","jkzqqvnpokh397z","{""user_agent"":""Mozilla/5.0 (Macintosh; Intel Mac OS X 10_14_4) AppleWebKit/537.36 (KHTML, like Gecko) Chrome/74.0.3729.169 Safari/537.36"",""on_chrome"":true,""on_mobile"":false,""language"":""en-US"",""screen_resolution"":[1440,900],""platform"":""MacIntel"",""timezone"":""Europe/Berlin""}","24","4137.739999999967","","","1559135357493","3","","","[]","Ingolstadt","false","false","5280.249999999796"
"","html-voicekey-response","35","234802","0.0-4.31-0.31","jkzqqvnpokh397z","{""user_agent"":""Mozilla/5.0 (Macintosh; Intel Mac OS X 10_14_4) AppleWebKit/537.36 (KHTML, like Gecko) Chrome/74.0.3729.169 Safari/537.36"",""on_chrome"":true,""on_mobile"":false,""language"":""en-US"",""screen_resolution"":[1440,900],""platform"":""MacIntel"",""timezone"":""Europe/Berlin""}","24","1601.1450000022073","","","1559135366780","5","","Aachen","[]","Aachen","true","false","2269.0849999999045"
"","html-voicekey-response","36","239201","0.0-4.32-0.32","jkzqqvnpokh397z","{""user_agent"":""Mozilla/5.0 (Macintosh; Intel Mac OS X 10_14_4) AppleWebKit/537.36 (KHTML, like Gecko) Chrome/74.0.3729.169 Safari/537.36"",""on_chrome"":true,""on_mobile"":false,""language"":""en-US"",""screen_resolution"":[1440,900],""platform"":""MacIntel"",""timezone"":""Europe/Berlin""}","24","2287.9949999968","","","1559135369652","11","","Alfeld","[]","Alfeld","true","true","3795.959999999468"
"","html-voicekey-response","37","242301","0.0-4.33-0.33","jkzqqvnpokh397z","{""user_agent"":""Mozilla/5.0 (Macintosh; Intel Mac OS X 10_14_4) AppleWebKit/537.36 (KHTML, like Gecko) Chrome/74.0.3729.169 Safari/537.36"",""on_chrome"":true,""on_mobile"":false,""language"":""en-US"",""screen_resolution"":[1440,900],""platform"":""MacIntel"",""timezone"":""Europe/Berlin""}","24","1572.3349999987754","","","1559135374051","12","","Dessau","[]","Dessau","true","true","2496.885000000475"
"","html-voicekey-response","38","244827","0.0-4.34-0.34","jkzqqvnpokh397z","{""user_agent"":""Mozilla/5.0 (Macintosh; Intel Mac OS X 10_14_4) AppleWebKit/537.36 (KHTML, like Gecko) Chrome/74.0.3729.169 Safari/537.36"",""on_chrome"":true,""on_mobile"":false,""language"":""en-US"",""screen_resolution"":[1440,900],""platform"":""MacIntel"",""timezone"":""Europe/Berlin""}","24","989.3600000012433","","","1559135377151","11","","Alfeld","[]","Alfeld","true","false","1923.5200000002806"
"","html-voicekey-response","39","247793","0.0-4.35-0.35","jkzqqvnpokh397z","{""user_agent"":""Mozilla/5.0 (Macintosh; Intel Mac OS X 10_14_4) AppleWebKit/537.36 (KHTML, like Gecko) Chrome/74.0.3729.169 Safari/537.36"",""on_chrome"":true,""on_mobile"":false,""language"":""en-US"",""screen_resolution"":[1440,900],""platform"":""MacIntel"",""timezone"":""Europe/Berlin""}","24","1737.070000000886","","","1559135379677","12","","Dessau","[]","Dessau","true","false","2363.0149999989953"
"","html-voicekey-response","40","250659","0.0-4.36-0.36","jkzqqvnpokh397z","{""user_agent"":""Mozilla/5.0 (Macintosh; Intel Mac OS X 10_14_4) AppleWebKit/537.36 (KHTML, like Gecko) Chrome/74.0.3729.169 Safari/537.36"",""on_chrome"":true,""on_mobile"":false,""language"":""en-US"",""screen_resolution"":[1440,900],""platform"":""MacIntel"",""timezone"":""Europe/Berlin""}","24","1605.8350000001433","","","1559135382643","13","","Chemnitz","[]","Chemnitz","true","true","2262.844999997469"
"","html-voicekey-response","41","254729","0.0-4.37-0.37","jkzqqvnpokh397z","{""user_agent"":""Mozilla/5.0 (Macintosh; Intel Mac OS X 10_14_4) AppleWebKit/537.36 (KHTML, like Gecko) Chrome/74.0.3729.169 Safari/537.36"",""on_chrome"":true,""on_mobile"":false,""language"":""en-US"",""screen_resolution"":[1440,900],""platform"":""MacIntel"",""timezone"":""Europe/Berlin""}","24","2037.8700000017766","","","1559135385511","10","","Heidelberg","[]","Heidelberg","true","false","3462.9449999993085"
"","html-voicekey-response","42","258233","0.0-4.38-0.38","jkzqqvnpokh397z","{""user_agent"":""Mozilla/5.0 (Macintosh; Intel Mac OS X 10_14_4) AppleWebKit/537.36 (KHTML, like Gecko) Chrome/74.0.3729.169 Safari/537.36"",""on_chrome"":true,""on_mobile"":false,""language"":""en-US"",""screen_resolution"":[1440,900],""platform"":""MacIntel"",""timezone"":""Europe/Berlin""}","24","2459.1400000006893","","","1559135389579","13","","Chemnitz","[]","Chemnitz","true","false","2901.304999999411"
"","html-voicekey-response","43","265999","0.0-4.39-0.39","jkzqqvnpokh397z","{""user_agent"":""Mozilla/5.0 (Macintosh; Intel Mac OS X 10_14_4) AppleWebKit/537.36 (KHTML, like Gecko) Chrome/74.0.3729.169 Safari/537.36"",""on_chrome"":true,""on_mobile"":false,""language"":""en-US"",""screen_resolution"":[1440,900],""platform"":""MacIntel"",""timezone"":""Europe/Berlin""}","24","3271.985000001069","","","1559135393082","3","","","[]","Ingolstadt","false","false","3763.95500000217"
"","html-voicekey-response","44","269517","0.0-4.40-0.40","jkzqqvnpokh397z","{""user_agent"":""Mozilla/5.0 (Macintosh; Intel Mac OS X 10_14_4) AppleWebKit/537.36 (KHTML, like Gecko) Chrome/74.0.3729.169 Safari/537.36"",""on_chrome"":true,""on_mobile"":false,""language"":""en-US"",""screen_resolution"":[1440,900],""platform"":""MacIntel"",""timezone"":""Europe/Berlin""}","24","2221.4000000001747","","","1559135400849","14","","Potsdam","[]","Potsdam","true","true","2915.5850000024657"
"","html-voicekey-response","45","272817","0.0-4.41-0.41","jkzqqvnpokh397z","{""user_agent"":""Mozilla/5.0 (Macintosh; Intel Mac OS X 10_14_4) AppleWebKit/537.36 (KHTML, like Gecko) Chrome/74.0.3729.169 Safari/537.36"",""on_chrome"":true,""on_mobile"":false,""language"":""en-US"",""screen_resolution"":[1440,900],""platform"":""MacIntel"",""timezone"":""Europe/Berlin""}","24","1454.984999998333","","","1559135404368","15","","Nürnberg","[]","Nürnberg","true","true","2696.169999999285"
"","html-voicekey-response","46","274984","0.0-4.42-0.42","jkzqqvnpokh397z","{""user_agent"":""Mozilla/5.0 (Macintosh; Intel Mac OS X 10_14_4) AppleWebKit/537.36 (KHTML, like Gecko) Chrome/74.0.3729.169 Safari/537.36"",""on_chrome"":true,""on_mobile"":false,""language"":""en-US"",""screen_resolution"":[1440,900],""platform"":""MacIntel"",""timezone"":""Europe/Berlin""}","24","752.5299999995972","","","1559135407670","14","","Potsdam","[]","Potsdam","true","false","1561.6399999998976"
"","html-voicekey-response","47","277600","0.0-4.43-0.43","jkzqqvnpokh397z","{""user_agent"":""Mozilla/5.0 (Macintosh; Intel Mac OS X 10_14_4) AppleWebKit/537.36 (KHTML, like Gecko) Chrome/74.0.3729.169 Safari/537.36"",""on_chrome"":true,""on_mobile"":false,""language"":""en-US"",""screen_resolution"":[1440,900],""platform"":""MacIntel"",""timezone"":""Europe/Berlin""}","24","1253.9400000003284","","","1559135409835","15","","Nürnberg","[]","Nürnberg","true","false","2011.67500000156"
"","html-voicekey-response","48","280175","0.0-4.44-0.44","jkzqqvnpokh397z","{""user_agent"":""Mozilla/5.0 (Macintosh; Intel Mac OS X 10_14_4) AppleWebKit/537.36 (KHTML, like Gecko) Chrome/74.0.3729.169 Safari/537.36"",""on_chrome"":true,""on_mobile"":false,""language"":""en-US"",""screen_resolution"":[1440,900],""platform"":""MacIntel"",""timezone"":""Europe/Berlin""}","24","896.2699999991222","","","1559135412450","3","","Ingolstadt","[]","Ingolstadt","true","false","1972.0950000009616"
"","html-voicekey-response","49","283475","0.0-4.45-0.45","jkzqqvnpokh397z","{""user_agent"":""Mozilla/5.0 (Macintosh; Intel Mac OS X 10_14_4) AppleWebKit/537.36 (KHTML, like Gecko) Chrome/74.0.3729.169 Safari/537.36"",""on_chrome"":true,""on_mobile"":false,""language"":""en-US"",""screen_resolution"":[1440,900],""platform"":""MacIntel"",""timezone"":""Europe/Berlin""}","24","1619.6399999988266","","","1559135415027","16","","Schwangau","[]","Schwangau","true","true","2695.4899999982445"
"","html-voicekey-response","50","285808","0.0-4.46-0.46","jkzqqvnpokh397z","{""user_agent"":""Mozilla/5.0 (Macintosh; Intel Mac OS X 10_14_4) AppleWebKit/537.36 (KHTML, like Gecko) Chrome/74.0.3729.169 Safari/537.36"",""on_chrome"":true,""on_mobile"":false,""language"":""en-US"",""screen_resolution"":[1440,900],""platform"":""MacIntel"",""timezone"":""Europe/Berlin""}","24","871.1700000001932","","","1559135418325","1","","Magdeburg","[]","Magdeburg","true","false","1729.9700000003213"
"","html-voicekey-response","51","288066","0.0-4.47-0.47","jkzqqvnpokh397z","{""user_agent"":""Mozilla/5.0 (Macintosh; Intel Mac OS X 10_14_4) AppleWebKit/537.36 (KHTML, like Gecko) Chrome/74.0.3729.169 Safari/537.36"",""on_chrome"":true,""on_mobile"":false,""language"":""en-US"",""screen_resolution"":[1440,900],""platform"":""MacIntel"",""timezone"":""Europe/Berlin""}","24","1037.9150000024588","","","1559135420659","16","","Schwangau","[]","Schwangau","true","false","1653.3200000012293"
"","html-voicekey-response","52","299283","0.0-4.48-0.48","jkzqqvnpokh397z","{""user_agent"":""Mozilla/5.0 (Macintosh; Intel Mac OS X 10_14_4) AppleWebKit/537.36 (KHTML, like Gecko) Chrome/74.0.3729.169 Safari/537.36"",""on_chrome"":true,""on_mobile"":false,""language"":""en-US"",""screen_resolution"":[1440,900],""platform"":""MacIntel"",""timezone"":""Europe/Berlin""}","24","6638.759999999636","","","1559135422916","11","","","[]","Alfeld","false","false","7214.295000001555"
"","html-voicekey-response","53","302008","0.0-4.49-0.49","jkzqqvnpokh397z","{""user_agent"":""Mozilla/5.0 (Macintosh; Intel Mac OS X 10_14_4) AppleWebKit/537.36 (KHTML, like Gecko) Chrome/74.0.3729.169 Safari/537.36"",""on_chrome"":true,""on_mobile"":false,""language"":""en-US"",""screen_resolution"":[1440,900],""platform"":""MacIntel"",""timezone"":""Europe/Berlin""}","24","1572.0249999993016","","","1559135434133","12","","Dessau","[]","Dessau","true","false","2122.4199999996927"
"","html-voicekey-response","54","312557","0.0-4.50-0.50","jkzqqvnpokh397z","{""user_agent"":""Mozilla/5.0 (Macintosh; Intel Mac OS X 10_14_4) AppleWebKit/537.36 (KHTML, like Gecko) Chrome/74.0.3729.169 Safari/537.36"",""on_chrome"":true,""on_mobile"":false,""language"":""en-US"",""screen_resolution"":[1440,900],""platform"":""MacIntel"",""timezone"":""Europe/Berlin""}","24","5837.140000001329","","","1559135436858","13","","","[]","Chemnitz","false","false","6545.720000001893"
"","html-voicekey-response","55","315304","0.0-4.51-0.51","jkzqqvnpokh397z","{""user_agent"":""Mozilla/5.0 (Macintosh; Intel Mac OS X 10_14_4) AppleWebKit/537.36 (KHTML, like Gecko) Chrome/74.0.3729.169 Safari/537.36"",""on_chrome"":true,""on_mobile"":false,""language"":""en-US"",""screen_resolution"":[1440,900],""platform"":""MacIntel"",""timezone"":""Europe/Berlin""}","24","1289.1249999974157","","","1559135447406","17","","Leipzig","[]","Leipzig","true","true","2144.0750000001863"
"","html-voicekey-response","56","319203","0.0-4.52-0.52","jkzqqvnpokh397z","{""user_agent"":""Mozilla/5.0 (Macintosh; Intel Mac OS X 10_14_4) AppleWebKit/537.36 (KHTML, like Gecko) Chrome/74.0.3729.169 Safari/537.36"",""on_chrome"":true,""on_mobile"":false,""language"":""en-US"",""screen_resolution"":[1440,900],""platform"":""MacIntel"",""timezone"":""Europe/Berlin""}","24","2304.290000001702","","","1559135450153","18","","Forchheim","[]","Forchheim","true","true","3296.4150000006775"
"","html-voicekey-response","57","321769","0.0-4.53-0.53","jkzqqvnpokh397z","{""user_agent"":""Mozilla/5.0 (Macintosh; Intel Mac OS X 10_14_4) AppleWebKit/537.36 (KHTML, like Gecko) Chrome/74.0.3729.169 Safari/537.36"",""on_chrome"":true,""on_mobile"":false,""language"":""en-US"",""screen_resolution"":[1440,900],""platform"":""MacIntel"",""timezone"":""Europe/Berlin""}","24","1404.6499999984285","","","1559135454053","17","","Leipzig","[]","Leipzig","true","false","1962.8950000005425"
"","html-voicekey-response","58","326070","0.0-4.54-0.54","jkzqqvnpokh397z","{""user_agent"":""Mozilla/5.0 (Macintosh; Intel Mac OS X 10_14_4) AppleWebKit/537.36 (KHTML, like Gecko) Chrome/74.0.3729.169 Safari/537.36"",""on_chrome"":true,""on_mobile"":false,""language"":""en-US"",""screen_resolution"":[1440,900],""platform"":""MacIntel"",""timezone"":""Europe/Berlin""}","24","3238.8950000002283","","","1559135456618","18","","Forchheim","[]","Forchheim","true","false","3698.0299999995623"
"","html-voicekey-response","59","334898","0.0-4.55-0.55","jkzqqvnpokh397z","{""user_agent"":""Mozilla/5.0 (Macintosh; Intel Mac OS X 10_14_4) AppleWebKit/537.36 (KHTML, like Gecko) Chrome/74.0.3729.169 Safari/537.36"",""on_chrome"":true,""on_mobile"":false,""language"":""en-US"",""screen_resolution"":[1440,900],""platform"":""MacIntel"",""timezone"":""Europe/Berlin""}","24","4099.439999999804","","","1559135460920","15","","","[]","Nürnberg","false","false","4825.235000000277"
"","html-voicekey-response","60","337914","0.0-4.56-0.56","jkzqqvnpokh397z","{""user_agent"":""Mozilla/5.0 (Macintosh; Intel Mac OS X 10_14_4) AppleWebKit/537.36 (KHTML, like Gecko) Chrome/74.0.3729.169 Safari/537.36"",""on_chrome"":true,""on_mobile"":false,""language"":""en-US"",""screen_resolution"":[1440,900],""platform"":""MacIntel"",""timezone"":""Europe/Berlin""}","24","1788.2449999977603","","","1559135469748","14","","Potsdam","[]","Potsdam","true","false","2413.139999996987"
"","html-voicekey-response","61","340572","0.0-4.57-0.57","jkzqqvnpokh397z","{""user_agent"":""Mozilla/5.0 (Macintosh; Intel Mac OS X 10_14_4) AppleWebKit/537.36 (KHTML, like Gecko) Chrome/74.0.3729.169 Safari/537.36"",""on_chrome"":true,""on_mobile"":false,""language"":""en-US"",""screen_resolution"":[1440,900],""platform"":""MacIntel"",""timezone"":""Europe/Berlin""}","24","1196.9499999993482","","","1559135472764","3","","Ingolstadt","[]","Ingolstadt","true","false","2055.644999996701"
"","html-voicekey-response","62","343373","0.0-4.58-0.58","jkzqqvnpokh397z","{""user_agent"":""Mozilla/5.0 (Macintosh; Intel Mac OS X 10_14_4) AppleWebKit/537.36 (KHTML, like Gecko) Chrome/74.0.3729.169 Safari/537.36"",""on_chrome"":true,""on_mobile"":false,""language"":""en-US"",""screen_resolution"":[1440,900],""platform"":""MacIntel"",""timezone"":""Europe/Berlin""}","24","1421.3499999985565","","","1559135475423","16","","Schwangau","[]","Schwangau","true","false","2196.8100000012782"
"","html-voicekey-response","63","349689","0.0-4.59-0.59","jkzqqvnpokh397z","{""user_agent"":""Mozilla/5.0 (Macintosh; Intel Mac OS X 10_14_4) AppleWebKit/537.36 (KHTML, like Gecko) Chrome/74.0.3729.169 Safari/537.36"",""on_chrome"":true,""on_mobile"":false,""language"":""en-US"",""screen_resolution"":[1440,900],""platform"":""MacIntel"",""timezone"":""Europe/Berlin""}","24","1387.9900000008988","","","1559135478223","11","","","[]","Alfeld","false","false","2312.549999998766"
"","html-voicekey-response","64","352884","0.0-4.60-0.60","jkzqqvnpokh397z","{""user_agent"":""Mozilla/5.0 (Macintosh; Intel Mac OS X 10_14_4) AppleWebKit/537.36 (KHTML, like Gecko) Chrome/74.0.3729.169 Safari/537.36"",""on_chrome"":true,""on_mobile"":false,""language"":""en-US"",""screen_resolution"":[1440,900],""platform"":""MacIntel"",""timezone"":""Europe/Berlin""}","24","2037.4250000003144","","","1559135484539","13","","Chemnitz","[]","Chemnitz","true","false","2591.8149999997695"
"","html-voicekey-response","65","356167","0.0-4.61-0.61","jkzqqvnpokh397z","{""user_agent"":""Mozilla/5.0 (Macintosh; Intel Mac OS X 10_14_4) AppleWebKit/537.36 (KHTML, like Gecko) Chrome/74.0.3729.169 Safari/537.36"",""on_chrome"":true,""on_mobile"":false,""language"":""en-US"",""screen_resolution"":[1440,900],""platform"":""MacIntel"",""timezone"":""Europe/Berlin""}","24","1737.4650000000024","","","1559135487734","19","","Frankfurt","[]","Frankfurt","true","true","2680.1400000004214"
"","html-voicekey-response","66","358734","0.0-4.62-0.62","jkzqqvnpokh397z","{""user_agent"":""Mozilla/5.0 (Macintosh; Intel Mac OS X 10_14_4) AppleWebKit/537.36 (KHTML, like Gecko) Chrome/74.0.3729.169 Safari/537.36"",""on_chrome"":true,""on_mobile"":false,""language"":""en-US"",""screen_resolution"":[1440,900],""platform"":""MacIntel"",""timezone"":""Europe/Berlin""}","24","1437.820000000857","","","1559135491017","20","","Hamburg ","[]","Hamburg ","true","true","1963.5200000011828"
"","html-voicekey-response","67","361202","0.0-4.63-0.63","jkzqqvnpokh397z","{""user_agent"":""Mozilla/5.0 (Macintosh; Intel Mac OS X 10_14_4) AppleWebKit/537.36 (KHTML, like Gecko) Chrome/74.0.3729.169 Safari/537.36"",""on_chrome"":true,""on_mobile"":false,""language"":""en-US"",""screen_resolution"":[1440,900],""platform"":""MacIntel"",""timezone"":""Europe/Berlin""}","24","936.630000001844","","","1559135493585","19","","Frankfurt","[]","Frankfurt","true","false","1862.6400000030408"
"","html-voicekey-response","68","363741","0.0-4.64-0.64","jkzqqvnpokh397z","{""user_agent"":""Mozilla/5.0 (Macintosh; Intel Mac OS X 10_14_4) AppleWebKit/537.36 (KHTML, like Gecko) Chrome/74.0.3729.169 Safari/537.36"",""on_chrome"":true,""on_mobile"":false,""language"":""en-US"",""screen_resolution"":[1440,900],""platform"":""MacIntel"",""timezone"":""Europe/Berlin""}","24","1410.7149999998278","","","1559135496052","20","","Hamburg ","[]","Hamburg ","true","false","1936.054999998305"
"","html-voicekey-response","69","366109","0.0-4.65-0.65","jkzqqvnpokh397z","{""user_agent"":""Mozilla/5.0 (Macintosh; Intel Mac OS X 10_14_4) AppleWebKit/537.36 (KHTML, like Gecko) Chrome/74.0.3729.169 Safari/537.36"",""on_chrome"":true,""on_mobile"":false,""language"":""en-US"",""screen_resolution"":[1440,900],""platform"":""MacIntel"",""timezone"":""Europe/Berlin""}","24","1070.4700000004145","","","1559135498593","17","","Leipzig","[]","Leipzig","true","false","1762.6149999996414"
"","html-voicekey-response","70","374444","0.0-4.66-0.66","jkzqqvnpokh397z","{""user_agent"":""Mozilla/5.0 (Macintosh; Intel Mac OS X 10_14_4) AppleWebKit/537.36 (KHTML, like Gecko) Chrome/74.0.3729.169 Safari/537.36"",""on_chrome"":true,""on_mobile"":false,""language"":""en-US"",""screen_resolution"":[1440,900],""platform"":""MacIntel"",""timezone"":""Europe/Berlin""}","24","3687.389999997197","","","1559135500959","15","","","[]","Nürnberg","false","false","4329.7549999988405"
"","html-voicekey-response","71","382216","0.0-4.67-0.67","jkzqqvnpokh397z","{""user_agent"":""Mozilla/5.0 (Macintosh; Intel Mac OS X 10_14_4) AppleWebKit/537.36 (KHTML, like Gecko) Chrome/74.0.3729.169 Safari/537.36"",""on_chrome"":true,""on_mobile"":false,""language"":""en-US"",""screen_resolution"":[1440,900],""platform"":""MacIntel"",""timezone"":""Europe/Berlin""}","24","3127.3700000000304","","","1559135509293","18","","","[]","Forchheim","false","false","3769.2950000019046"
"","html-voicekey-response","72","389576","0.0-4.68-0.68","jkzqqvnpokh397z","{""user_agent"":""Mozilla/5.0 (Macintosh; Intel Mac OS X 10_14_4) AppleWebKit/537.36 (KHTML, like Gecko) Chrome/74.0.3729.169 Safari/537.36"",""on_chrome"":true,""on_mobile"":false,""language"":""en-US"",""screen_resolution"":[1440,900],""platform"":""MacIntel"",""timezone"":""Europe/Berlin""}","24","5838.955000000924","","","1559135517065","11","","Alfeld","[]","Alfeld","true","false","6757.239999999001"
"","html-voicekey-response","73","392358","0.0-4.69-0.69","jkzqqvnpokh397z","{""user_agent"":""Mozilla/5.0 (Macintosh; Intel Mac OS X 10_14_4) AppleWebKit/537.36 (KHTML, like Gecko) Chrome/74.0.3729.169 Safari/537.36"",""on_chrome"":true,""on_mobile"":false,""language"":""en-US"",""screen_resolution"":[1440,900],""platform"":""MacIntel"",""timezone"":""Europe/Berlin""}","24","387.8700000003213","","","1559135524426","21","","Konstanz","[]","Konstanz","true","true","2179.6099999992293"
"","html-voicekey-response","74","400417","0.0-4.70-0.70","jkzqqvnpokh397z","{""user_agent"":""Mozilla/5.0 (Macintosh; Intel Mac OS X 10_14_4) AppleWebKit/537.36 (KHTML, like Gecko) Chrome/74.0.3729.169 Safari/537.36"",""on_chrome"":true,""on_mobile"":false,""language"":""en-US"",""screen_resolution"":[1440,900],""platform"":""MacIntel"",""timezone"":""Europe/Berlin""}","24","1504.9349999988685","","","1559135527208","3","","","[]","Ingolstadt","false","false","4055.4049999990966"
"","html-voicekey-response","75","408020","0.0-4.71-0.71","jkzqqvnpokh397z","{""user_agent"":""Mozilla/5.0 (Macintosh; Intel Mac OS X 10_14_4) AppleWebKit/537.36 (KHTML, like Gecko) Chrome/74.0.3729.169 Safari/537.36"",""on_chrome"":true,""on_mobile"":false,""language"":""en-US"",""screen_resolution"":[1440,900],""platform"":""MacIntel"",""timezone"":""Europe/Berlin""}","24","2755.170000001998","","","1559135535267","21","","","[]","Konstanz","false","false","3597.1449999996694"
"","html-voicekey-response","76","412039","0.0-4.72-0.72","jkzqqvnpokh397z","{""user_agent"":""Mozilla/5.0 (Macintosh; Intel Mac OS X 10_14_4) AppleWebKit/537.36 (KHTML, like Gecko) Chrome/74.0.3729.169 Safari/537.36"",""on_chrome"":true,""on_mobile"":false,""language"":""en-US"",""screen_resolution"":[1440,900],""platform"":""MacIntel"",""timezone"":""Europe/Berlin""}","24","2191.1800000032877","","","1559135542870","11","","Alfeld","[]","Alfeld","true","false","3416.5050000010524"
"","html-voicekey-response","77","425156","0.0-4.73-0.73","jkzqqvnpokh397z","{""user_agent"":""Mozilla/5.0 (Macintosh; Intel Mac OS X 10_14_4) AppleWebKit/537.36 (KHTML, like Gecko) Chrome/74.0.3729.169 Safari/537.36"",""on_chrome"":true,""on_mobile"":false,""language"":""en-US"",""screen_resolution"":[1440,900],""platform"":""MacIntel"",""timezone"":""Europe/Berlin""}","24","8655.215000000526","","","1559135546889","15","","","[]","Nürnberg","false","false","9113.93500000122"
"","html-voicekey-response","78","427521","0.0-4.74-0.74","jkzqqvnpokh397z","{""user_agent"":""Mozilla/5.0 (Macintosh; Intel Mac OS X 10_14_4) AppleWebKit/537.36 (KHTML, like Gecko) Chrome/74.0.3729.169 Safari/537.36"",""on_chrome"":true,""on_mobile"":false,""language"":""en-US"",""screen_resolution"":[1440,900],""platform"":""MacIntel"",""timezone"":""Europe/Berlin""}","24","1203.1149999982213","","","1559135560006","19","","Frankfurt","[]","Frankfurt","true","false","1762.2850000006729"
"","html-voicekey-response","79","429638","0.0-4.75-0.75","jkzqqvnpokh397z","{""user_agent"":""Mozilla/5.0 (Macintosh; Intel Mac OS X 10_14_4) AppleWebKit/537.36 (KHTML, like Gecko) Chrome/74.0.3729.169 Safari/537.36"",""on_chrome"":true,""on_mobile"":false,""language"":""en-US"",""screen_resolution"":[1440,900],""platform"":""MacIntel"",""timezone"":""Europe/Berlin""}","24","1005.0800000006333","","","1559135562371","20","","Hamburg ","[]","Hamburg ","true","false","1513.5250000021188"
"","html-voicekey-response","80","440388","0.0-4.76-0.76","jkzqqvnpokh397z","{""user_agent"":""Mozilla/5.0 (Macintosh; Intel Mac OS X 10_14_4) AppleWebKit/537.36 (KHTML, like Gecko) Chrome/74.0.3729.169 Safari/537.36"",""on_chrome"":true,""on_mobile"":false,""language"":""en-US"",""screen_resolution"":[1440,900],""platform"":""MacIntel"",""timezone"":""Europe/Berlin""}","24","6304.595000003092","","","1559135564488","18","","","[]","Forchheim","false","false","6745.820000000123"
"","html-voicekey-response","81","452549","0.0-4.77-0.77","jkzqqvnpokh397z","{""user_agent"":""Mozilla/5.0 (Macintosh; Intel Mac OS X 10_14_4) AppleWebKit/537.36 (KHTML, like Gecko) Chrome/74.0.3729.169 Safari/537.36"",""on_chrome"":true,""on_mobile"":false,""language"":""en-US"",""screen_resolution"":[1440,900],""platform"":""MacIntel"",""timezone"":""Europe/Berlin""}","24","7263.609999999846","","","1559135575239","15","","","[]","Nürnberg","false","false","8155.6149999997"
"","html-voicekey-response","82","466201","0.0-4.78-0.78","jkzqqvnpokh397z","{""user_agent"":""Mozilla/5.0 (Macintosh; Intel Mac OS X 10_14_4) AppleWebKit/537.36 (KHTML, like Gecko) Chrome/74.0.3729.169 Safari/537.36"",""on_chrome"":true,""on_mobile"":false,""language"":""en-US"",""screen_resolution"":[1440,900],""platform"":""MacIntel"",""timezone"":""Europe/Berlin""}","24","8740.125000001955","","","1559135587400","3","","","[]","Ingolstadt","false","false","9648.040000000037"
"","html-voicekey-response","83","468915","0.0-4.79-0.79","jkzqqvnpokh397z","{""user_agent"":""Mozilla/5.0 (Macintosh; Intel Mac OS X 10_14_4) AppleWebKit/537.36 (KHTML, like Gecko) Chrome/74.0.3729.169 Safari/537.36"",""on_chrome"":true,""on_mobile"":false,""language"":""en-US"",""screen_resolution"":[1440,900],""platform"":""MacIntel"",""timezone"":""Europe/Berlin""}","24","1601.1650000017603","","","1559135601052","13","","Chemnitz","[]","Chemnitz","true","false","2109.984999999171"
"","html-voicekey-response","84","472699","0.0-4.80-0.80","jkzqqvnpokh397z","{""user_agent"":""Mozilla/5.0 (Macintosh; Intel Mac OS X 10_14_4) AppleWebKit/537.36 (KHTML, like Gecko) Chrome/74.0.3729.169 Safari/537.36"",""on_chrome"":true,""on_mobile"":false,""language"":""en-US"",""screen_resolution"":[1440,900],""platform"":""MacIntel"",""timezone"":""Europe/Berlin""}","24","2537.3750000015484","","","1559135603766","3","","Ingolstadt","[]","Ingolstadt","true","false","3179.724999998114"
"","html-voicekey-response","85","480523","0.0-4.81-0.81","jkzqqvnpokh397z","{""user_agent"":""Mozilla/5.0 (Macintosh; Intel Mac OS X 10_14_4) AppleWebKit/537.36 (KHTML, like Gecko) Chrome/74.0.3729.169 Safari/537.36"",""on_chrome"":true,""on_mobile"":false,""language"":""en-US"",""screen_resolution"":[1440,900],""platform"":""MacIntel"",""timezone"":""Europe/Berlin""}","24","6045.694999998761","","","1559135607549","11","","Alfeld","[]","Alfeld","true","false","7221.11500000034"
"","html-voicekey-response","86","486056","0.0-4.82-0.82","jkzqqvnpokh397z","{""user_agent"":""Mozilla/5.0 (Macintosh; Intel Mac OS X 10_14_4) AppleWebKit/537.36 (KHTML, like Gecko) Chrome/74.0.3729.169 Safari/537.36"",""on_chrome"":true,""on_mobile"":false,""language"":""en-US"",""screen_resolution"":[1440,900],""platform"":""MacIntel"",""timezone"":""Europe/Berlin""}","24","Infinity","","","1559135615376","15","","Nürnberg","[]","Nürnberg","true","false","4927.475000000442"
"","html-voicekey-response","87","493853","0.0-4.83-0.83","jkzqqvnpokh397z","{""user_agent"":""Mozilla/5.0 (Macintosh; Intel Mac OS X 10_14_4) AppleWebKit/537.36 (KHTML, like Gecko) Chrome/74.0.3729.169 Safari/537.36"",""on_chrome"":true,""on_mobile"":false,""language"":""en-US"",""screen_resolution"":[1440,900],""platform"":""MacIntel"",""timezone"":""Europe/Berlin""}","24","3117.1249999986962","","","1559135620907","18","","","[]","Forchheim","false","false","3792.860000001383"
"","html-voicekey-response","88","507970","0.0-4.84-0.84","jkzqqvnpokh397z","{""user_agent"":""Mozilla/5.0 (Macintosh; Intel Mac OS X 10_14_4) AppleWebKit/537.36 (KHTML, like Gecko) Chrome/74.0.3729.169 Safari/537.36"",""on_chrome"":true,""on_mobile"":false,""language"":""en-US"",""screen_resolution"":[1440,900],""platform"":""MacIntel"",""timezone"":""Europe/Berlin""}","24","9635.690000000852","","","1559135628704","21","","","[]","Konstanz","false","false","10111.250000001746"
"","html-voicekey-response","89","516064","0.0-4.85-0.85","jkzqqvnpokh397z","{""user_agent"":""Mozilla/5.0 (Macintosh; Intel Mac OS X 10_14_4) AppleWebKit/537.36 (KHTML, like Gecko) Chrome/74.0.3729.169 Safari/537.36"",""on_chrome"":true,""on_mobile"":false,""language"":""en-US"",""screen_resolution"":[1440,900],""platform"":""MacIntel"",""timezone"":""Europe/Berlin""}","24","2081.9649999992457","","","1559135642821","3","","","[]","Ingolstadt","false","false","4090.8149999995367"
"","html-voicekey-response","90","519947","0.0-4.86-0.86","jkzqqvnpokh397z","{""user_agent"":""Mozilla/5.0 (Macintosh; Intel Mac OS X 10_14_4) AppleWebKit/537.36 (KHTML, like Gecko) Chrome/74.0.3729.169 Safari/537.36"",""on_chrome"":true,""on_mobile"":false,""language"":""en-US"",""screen_resolution"":[1440,900],""platform"":""MacIntel"",""timezone"":""Europe/Berlin""}","24","2736.490000000957","","","1559135650915","18","","Forchheim","[]","Forchheim","true","false","3278.265000000829"
"","html-voicekey-response","91","528930","0.0-4.87-0.87","jkzqqvnpokh397z","{""user_agent"":""Mozilla/5.0 (Macintosh; Intel Mac OS X 10_14_4) AppleWebKit/537.36 (KHTML, like Gecko) Chrome/74.0.3729.169 Safari/537.36"",""on_chrome"":true,""on_mobile"":false,""language"":""en-US"",""screen_resolution"":[1440,900],""platform"":""MacIntel"",""timezone"":""Europe/Berlin""}","24","3753.934999998694","","","1559135654797","15","","","[]","Nürnberg","false","false","4979.084999999031"
"","html-voicekey-response","92","531191","0.0-4.88-0.88","jkzqqvnpokh397z","{""user_agent"":""Mozilla/5.0 (Macintosh; Intel Mac OS X 10_14_4) AppleWebKit/537.36 (KHTML, like Gecko) Chrome/74.0.3729.169 Safari/537.36"",""on_chrome"":true,""on_mobile"":false,""language"":""en-US"",""screen_resolution"":[1440,900],""platform"":""MacIntel"",""timezone"":""Europe/Berlin""}","24","1036.8749999996276","","","1559135663781","2","","Berlin","[]","Berlin","true","false","1656.9799999997485"
"","html-voicekey-response","93","541891","0.0-4.89-0.89","jkzqqvnpokh397z","{""user_agent"":""Mozilla/5.0 (Macintosh; Intel Mac OS X 10_14_4) AppleWebKit/537.36 (KHTML, like Gecko) Chrome/74.0.3729.169 Safari/537.36"",""on_chrome"":true,""on_mobile"":false,""language"":""en-US"",""screen_resolution"":[1440,900],""platform"":""MacIntel"",""timezone"":""Europe/Berlin""}","24","6036.570000001788","","","1559135666043","10","","","[]","Heidelberg","false","false","6694.70999999973"
"","html-voicekey-response","94","557403","0.0-4.90-0.90","jkzqqvnpokh397z","{""user_agent"":""Mozilla/5.0 (Macintosh; Intel Mac OS X 10_14_4) AppleWebKit/537.36 (KHTML, like Gecko) Chrome/74.0.3729.169 Safari/537.36"",""on_chrome"":true,""on_mobile"":false,""language"":""en-US"",""screen_resolution"":[1440,900],""platform"":""MacIntel"",""timezone"":""Europe/Berlin""}","24","10920.87500000149","","","1559135676742","15","","","[]","Nürnberg","false","false","11507.024999998976"
"","html-voicekey-response","95","559993","0.0-4.91-0.91","jkzqqvnpokh397z","{""user_agent"":""Mozilla/5.0 (Macintosh; Intel Mac OS X 10_14_4) AppleWebKit/537.36 (KHTML, like Gecko) Chrome/74.0.3729.169 Safari/537.36"",""on_chrome"":true,""on_mobile"":false,""language"":""en-US"",""screen_resolution"":[1440,900],""platform"":""MacIntel"",""timezone"":""Europe/Berlin""}","24","1309.719999999134","","","1559135692254","3","","Ingolstadt","[]","Ingolstadt","true","false","1985.5449999995762"
"","html-voicekey-response","96","573928","0.0-4.92-0.92","jkzqqvnpokh397z","{""user_agent"":""Mozilla/5.0 (Macintosh; Intel Mac OS X 10_14_4) AppleWebKit/537.36 (KHTML, like Gecko) Chrome/74.0.3729.169 Safari/537.36"",""on_chrome"":true,""on_mobile"":false,""language"":""en-US"",""screen_resolution"":[1440,900],""platform"":""MacIntel"",""timezone"":""Europe/Berlin""}","24","9185.830000000167","","","1559135694845","11","","","[]","Alfeld","false","false","9928.524999999325"
"","html-voicekey-response","97","583955","0.0-4.93-0.93","jkzqqvnpokh397z","{""user_agent"":""Mozilla/5.0 (Macintosh; Intel Mac OS X 10_14_4) AppleWebKit/537.36 (KHTML, like Gecko) Chrome/74.0.3729.169 Safari/537.36"",""on_chrome"":true,""on_mobile"":false,""language"":""en-US"",""screen_resolution"":[1440,900],""platform"":""MacIntel"",""timezone"":""Europe/Berlin""}","24","8396.914999999199","","","1559135708779","15","","Nürnberg","[]","Nürnberg","true","false","9422.02499999979"
"","html-voicekey-response","98","599400","0.0-4.94-0.94","jkzqqvnpokh397z","{""user_agent"":""Mozilla/5.0 (Macintosh; Intel Mac OS X 10_14_4) AppleWebKit/537.36 (KHTML, like Gecko) Chrome/74.0.3729.169 Safari/537.36"",""on_chrome"":true,""on_mobile"":false,""language"":""en-US"",""screen_resolution"":[1440,900],""platform"":""MacIntel"",""timezone"":""Europe/Berlin""}","24","248.3499999997206","","","1559135718807","21","","","[]","Konstanz","false","false","11440.004999996861"
"","html-voicekey-response","99","609079","0.0-4.95-0.95","jkzqqvnpokh397z","{""user_agent"":""Mozilla/5.0 (Macintosh; Intel Mac OS X 10_14_4) AppleWebKit/537.36 (KHTML, like Gecko) Chrome/74.0.3729.169 Safari/537.36"",""on_chrome"":true,""on_mobile"":false,""language"":""en-US"",""screen_resolution"":[1440,900],""platform"":""MacIntel"",""timezone"":""Europe/Berlin""}","24","100","","","1559135734252","11","","","[]","Alfeld","false","false","5674.109999999986"
"","html-voicekey-response","100","623626","0.0-4.96-0.96","jkzqqvnpokh397z","{""user_agent"":""Mozilla/5.0 (Macintosh; Intel Mac OS X 10_14_4) AppleWebKit/537.36 (KHTML, like Gecko) Chrome/74.0.3729.169 Safari/537.36"",""on_chrome"":true,""on_mobile"":false,""language"":""en-US"",""screen_resolution"":[1440,900],""platform"":""MacIntel"",""timezone"":""Europe/Berlin""}","24","13102.150000000465","","","1559135743931","15","","Nürnberg","[]","Nürnberg","true","false","13940.94500000216"
"","html-voicekey-response","101","629253","0.0-4.97-0.97","jkzqqvnpokh397z","{""user_agent"":""Mozilla/5.0 (Macintosh; Intel Mac OS X 10_14_4) AppleWebKit/537.36 (KHTML, like Gecko) Chrome/74.0.3729.169 Safari/537.36"",""on_chrome"":true,""on_mobile"":false,""language"":""en-US"",""screen_resolution"":[1440,900],""platform"":""MacIntel"",""timezone"":""Europe/Berlin""}","24","4511.329999999236","","","1559135758479","18","","Forchheim","[]","Forchheim","true","false","5020.704999999027"
"","html-voicekey-response","102","631635","0.0-4.98-0.98","jkzqqvnpokh397z","{""user_agent"":""Mozilla/5.0 (Macintosh; Intel Mac OS X 10_14_4) AppleWebKit/537.36 (KHTML, like Gecko) Chrome/74.0.3729.169 Safari/537.36"",""on_chrome"":true,""on_mobile"":false,""language"":""en-US"",""screen_resolution"":[1440,900],""platform"":""MacIntel"",""timezone"":""Europe/Berlin""}","24","1284.9599999988918","","","1559135764105","15","","Nürnberg","[]","Nürnberg","true","false","1777.1099999991711"
"","html-voicekey-response","103","640885","0.0-4.99-0.99","jkzqqvnpokh397z","{""user_agent"":""Mozilla/5.0 (Macintosh; Intel Mac OS X 10_14_4) AppleWebKit/537.36 (KHTML, like Gecko) Chrome/74.0.3729.169 Safari/537.36"",""on_chrome"":true,""on_mobile"":false,""language"":""en-US"",""screen_resolution"":[1440,900],""platform"":""MacIntel"",""timezone"":""Europe/Berlin""}","24","4635.935000000032","","","1559135766487","3","","","[]","Ingolstadt","false","false","5244.125000001048"
"","html-voicekey-response","104","645239","0.0-4.100-0.100","jkzqqvnpokh397z","{""user_agent"":""Mozilla/5.0 (Macintosh; Intel Mac OS X 10_14_4) AppleWebKit/537.36 (KHTML, like Gecko) Chrome/74.0.3729.169 Safari/537.36"",""on_chrome"":true,""on_mobile"":false,""language"":""en-US"",""screen_resolution"":[1440,900],""platform"":""MacIntel"",""timezone"":""Europe/Berlin""}","24","3188.7450000011363","","","1559135775738","21","","Konstanz","[]","Konstanz","true","false","3748.8650000013877"
"","html-voicekey-response","105","652040","0.0-4.101-0.101","jkzqqvnpokh397z","{""user_agent"":""Mozilla/5.0 (Macintosh; Intel Mac OS X 10_14_4) AppleWebKit/537.36 (KHTML, like Gecko) Chrome/74.0.3729.169 Safari/537.36"",""on_chrome"":true,""on_mobile"":false,""language"":""en-US"",""screen_resolution"":[1440,900],""platform"":""MacIntel"",""timezone"":""Europe/Berlin""}","24","5752.329999997373","","","1559135780092","11","","Alfeld","[]","Alfeld","true","false","6194.404999998282"
"","html-voicekey-response","106","662503","0.0-4.102-0.102","jkzqqvnpokh397z","{""user_agent"":""Mozilla/5.0 (Macintosh; Intel Mac OS X 10_14_4) AppleWebKit/537.36 (KHTML, like Gecko) Chrome/74.0.3729.169 Safari/537.36"",""on_chrome"":true,""on_mobile"":false,""language"":""en-US"",""screen_resolution"":[1440,900],""platform"":""MacIntel"",""timezone"":""Europe/Berlin""}","24","9446.154999999422","","","1559135786893","15","","Nürnberg","[]","Nürnberg","true","false","9855.394999998622"
"","html-voicekey-response","107","672492","0.0-4.103-0.103","jkzqqvnpokh397z","{""user_agent"":""Mozilla/5.0 (Macintosh; Intel Mac OS X 10_14_4) AppleWebKit/537.36 (KHTML, like Gecko) Chrome/74.0.3729.169 Safari/537.36"",""on_chrome"":true,""on_mobile"":false,""language"":""en-US"",""screen_resolution"":[1440,900],""platform"":""MacIntel"",""timezone"":""Europe/Berlin""}","24","858.5249999976717","","","1559135797355","5","","","[]","Aachen","false","false","5983.5999999996275"
"","html-voicekey-response","108","682016","0.0-4.104-0.104","jkzqqvnpokh397z","{""user_agent"":""Mozilla/5.0 (Macintosh; Intel Mac OS X 10_14_4) AppleWebKit/537.36 (KHTML, like Gecko) Chrome/74.0.3729.169 Safari/537.36"",""on_chrome"":true,""on_mobile"":false,""language"":""en-US"",""screen_resolution"":[1440,900],""platform"":""MacIntel"",""timezone"":""Europe/Berlin""}","24","100","","","1559135807344","15","","","[]","Nürnberg","false","false","5519.2150000002"
"","html-voicekey-response","109","686919","0.0-4.105-0.105","jkzqqvnpokh397z","{""user_agent"":""Mozilla/5.0 (Macintosh; Intel Mac OS X 10_14_4) AppleWebKit/537.36 (KHTML, like Gecko) Chrome/74.0.3729.169 Safari/537.36"",""on_chrome"":true,""on_mobile"":false,""language"":""en-US"",""screen_resolution"":[1440,900],""platform"":""MacIntel"",""timezone"":""Europe/Berlin""}","24","Infinity","","","1559135816869","3","","Ingolstadt","[]","Ingolstadt","true","false","4294.4600000010105"
"","html-voicekey-response","110","690442","0.0-4.106-0.106","jkzqqvnpokh397z","{""user_agent"":""Mozilla/5.0 (Macintosh; Intel Mac OS X 10_14_4) AppleWebKit/537.36 (KHTML, like Gecko) Chrome/74.0.3729.169 Safari/537.36"",""on_chrome"":true,""on_mobile"":false,""language"":""en-US"",""screen_resolution"":[1440,900],""platform"":""MacIntel"",""timezone"":""Europe/Berlin""}","24","2424.795000000601","","","1559135821771","18","","Forchheim","[]","Forchheim","true","false","2916.8500000013737"
"","html-voicekey-response","111","696308","0.0-4.107-0.107","jkzqqvnpokh397z","{""user_agent"":""Mozilla/5.0 (Macintosh; Intel Mac OS X 10_14_4) AppleWebKit/537.36 (KHTML, like Gecko) Chrome/74.0.3729.169 Safari/537.36"",""on_chrome"":true,""on_mobile"":false,""language"":""en-US"",""screen_resolution"":[1440,900],""platform"":""MacIntel"",""timezone"":""Europe/Berlin""}","24","4701.21000000087","","","1559135825294","11","","Alfeld","[]","Alfeld","true","false","5260.304999999702"
"","html-voicekey-response","112","708752","0.0-4.108-0.108","jkzqqvnpokh397z","{""user_agent"":""Mozilla/5.0 (Macintosh; Intel Mac OS X 10_14_4) AppleWebKit/537.36 (KHTML, like Gecko) Chrome/74.0.3729.169 Safari/537.36"",""on_chrome"":true,""on_mobile"":false,""language"":""en-US"",""screen_resolution"":[1440,900],""platform"":""MacIntel"",""timezone"":""Europe/Berlin""}","24","4113.839999999827","","","1559135831159","15","","","[]","Nürnberg","false","false","8439.304999999818"
"","html-voicekey-response","113","713210","0.0-4.109-0.109","jkzqqvnpokh397z","{""user_agent"":""Mozilla/5.0 (Macintosh; Intel Mac OS X 10_14_4) AppleWebKit/537.36 (KHTML, like Gecko) Chrome/74.0.3729.169 Safari/537.36"",""on_chrome"":true,""on_mobile"":false,""language"":""en-US"",""screen_resolution"":[1440,900],""platform"":""MacIntel"",""timezone"":""Europe/Berlin""}","24","3100.825000002957","","","1559135843605","3","","Ingolstadt","[]","Ingolstadt","true","false","3852.1350000009406"
"","html-voicekey-response","114","717444","0.0-4.110-0.110","jkzqqvnpokh397z","{""user_agent"":""Mozilla/5.0 (Macintosh; Intel Mac OS X 10_14_4) AppleWebKit/537.36 (KHTML, like Gecko) Chrome/74.0.3729.169 Safari/537.36"",""on_chrome"":true,""on_mobile"":false,""language"":""en-US"",""screen_resolution"":[1440,900],""platform"":""MacIntel"",""timezone"":""Europe/Berlin""}","24","3017.915000001993","","","1559135848064","15","","Nürnberg","[]","Nürnberg","true","false","3626.8850000015227"
"","html-voicekey-response","115","728594","0.0-4.111-0.111","jkzqqvnpokh397z","{""user_agent"":""Mozilla/5.0 (Macintosh; Intel Mac OS X 10_14_4) AppleWebKit/537.36 (KHTML, like Gecko) Chrome/74.0.3729.169 Safari/537.36"",""on_chrome"":true,""on_mobile"":false,""language"":""en-US"",""screen_resolution"":[1440,900],""platform"":""MacIntel"",""timezone"":""Europe/Berlin""}","24","Infinity","","","1559135852298","10","","Heidelberg","[]","Heidelberg","true","false","10542.485000001732"
"","html-voicekey-response","116","734589","0.0-4.112-0.112","jkzqqvnpokh397z","{""user_agent"":""Mozilla/5.0 (Macintosh; Intel Mac OS X 10_14_4) AppleWebKit/537.36 (KHTML, like Gecko) Chrome/74.0.3729.169 Safari/537.36"",""on_chrome"":true,""on_mobile"":false,""language"":""en-US"",""screen_resolution"":[1440,900],""platform"":""MacIntel"",""timezone"":""Europe/Berlin""}","24","4761.625000000908","","","1559135863449","15","","Nürnberg","[]","Nürnberg","true","false","5387.334999999497"
"","html-voicekey-response","117","737297","0.0-4.113-0.113","jkzqqvnpokh397z","{""user_agent"":""Mozilla/5.0 (Macintosh; Intel Mac OS X 10_14_4) AppleWebKit/537.36 (KHTML, like Gecko) Chrome/74.0.3729.169 Safari/537.36"",""on_chrome"":true,""on_mobile"":false,""language"":""en-US"",""screen_resolution"":[1440,900],""platform"":""MacIntel"",""timezone"":""Europe/Berlin""}","24","1584.9450000003912","","","1559135869442","11","","Alfeld","[]","Alfeld","true","false","2102.1600000022445"
"","html-voicekey-response","118","739281","0.0-4.114-0.114","jkzqqvnpokh397z","{""user_agent"":""Mozilla/5.0 (Macintosh; Intel Mac OS X 10_14_4) AppleWebKit/537.36 (KHTML, like Gecko) Chrome/74.0.3729.169 Safari/537.36"",""on_chrome"":true,""on_mobile"":false,""language"":""en-US"",""screen_resolution"":[1440,900],""platform"":""MacIntel"",""timezone"":""Europe/Berlin""}","24","933.7399999983376","","","1559135872152","15","","Nürnberg","[]","Nürnberg","true","false","1376.1149999990594"
"","html-voicekey-response","119","742030","0.0-4.115-0.115","jkzqqvnpokh397z","{""user_agent"":""Mozilla/5.0 (Macintosh; Intel Mac OS X 10_14_4) AppleWebKit/537.36 (KHTML, like Gecko) Chrome/74.0.3729.169 Safari/537.36"",""on_chrome"":true,""on_mobile"":false,""language"":""en-US"",""screen_resolution"":[1440,900],""platform"":""MacIntel"",""timezone"":""Europe/Berlin""}","24","1484.2100000004052","","","1559135874134","3","","Ingolstadt","[]","Ingolstadt","true","false","2143.4149999986403"
"","html-voicekey-response","120","744330","0.0-4.116-0.116","jkzqqvnpokh397z","{""user_agent"":""Mozilla/5.0 (Macintosh; Intel Mac OS X 10_14_4) AppleWebKit/537.36 (KHTML, like Gecko) Chrome/74.0.3729.169 Safari/537.36"",""on_chrome"":true,""on_mobile"":false,""language"":""en-US"",""screen_resolution"":[1440,900],""platform"":""MacIntel"",""timezone"":""Europe/Berlin""}","24","951.2550000016112","","","1559135876884","6","","Dresden","[]","Dresden","true","false","1693.0900000005495"
"","html-voicekey-response","121","748698","0.0-4.117-0.117","jkzqqvnpokh397z","{""user_agent"":""Mozilla/5.0 (Macintosh; Intel Mac OS X 10_14_4) AppleWebKit/537.36 (KHTML, like Gecko) Chrome/74.0.3729.169 Safari/537.36"",""on_chrome"":true,""on_mobile"":false,""language"":""en-US"",""screen_resolution"":[1440,900],""platform"":""MacIntel"",""timezone"":""Europe/Berlin""}","24","3184.574999997369","","","1559135879184","21","","Konstanz","[]","Konstanz","true","false","3760.444999999949"
"","html-voicekey-response","122","751659","0.0-4.118-0.118","jkzqqvnpokh397z","{""user_agent"":""Mozilla/5.0 (Macintosh; Intel Mac OS X 10_14_4) AppleWebKit/537.36 (KHTML, like Gecko) Chrome/74.0.3729.169 Safari/537.36"",""on_chrome"":true,""on_mobile"":false,""language"":""en-US"",""screen_resolution"":[1440,900],""platform"":""MacIntel"",""timezone"":""Europe/Berlin""}","24","1744.8249999996974","","","1559135883553","15","","Nürnberg","[]","Nürnberg","true","false","2353.059999997611"
"","html-voicekey-response","123","761526","0.0-4.119-0.119","jkzqqvnpokh397z","{""user_agent"":""Mozilla/5.0 (Macintosh; Intel Mac OS X 10_14_4) AppleWebKit/537.36 (KHTML, like Gecko) Chrome/74.0.3729.169 Safari/537.36"",""on_chrome"":true,""on_mobile"":false,""language"":""en-US"",""screen_resolution"":[1440,900],""platform"":""MacIntel"",""timezone"":""Europe/Berlin""}","24","3383.7099999999396","","","1559135886514","4","","","[]","Würzburg","false","false","5858.110000001034"
"","html-voicekey-response","124","764671","0.0-4.120-0.120","jkzqqvnpokh397z","{""user_agent"":""Mozilla/5.0 (Macintosh; Intel Mac OS X 10_14_4) AppleWebKit/537.36 (KHTML, like Gecko) Chrome/74.0.3729.169 Safari/537.36"",""on_chrome"":true,""on_mobile"":false,""language"":""en-US"",""screen_resolution"":[1440,900],""platform"":""MacIntel"",""timezone"":""Europe/Berlin""}","24","2017.0999999989058","","","1559135896380","9","","München","[]","München","true","false","2538.114999999292"
"","html-voicekey-response","125","767355","0.0-4.121-0.121","jkzqqvnpokh397z","{""user_agent"":""Mozilla/5.0 (Macintosh; Intel Mac OS X 10_14_4) AppleWebKit/537.36 (KHTML, like Gecko) Chrome/74.0.3729.169 Safari/537.36"",""on_chrome"":true,""on_mobile"":false,""language"":""en-US"",""screen_resolution"":[1440,900],""platform"":""MacIntel"",""timezone"":""Europe/Berlin""}","24","1584.450000000163","","","1559135899525","8","","Gotha","[]","Gotha","true","false","2076.935000000987"
"","html-voicekey-response","126","770121","0.0-4.122-0.122","jkzqqvnpokh397z","{""user_agent"":""Mozilla/5.0 (Macintosh; Intel Mac OS X 10_14_4) AppleWebKit/537.36 (KHTML, like Gecko) Chrome/74.0.3729.169 Safari/537.36"",""on_chrome"":true,""on_mobile"":false,""language"":""en-US"",""screen_resolution"":[1440,900],""platform"":""MacIntel"",""timezone"":""Europe/Berlin""}","24","1548.9399999986404","","","1559135902211","15","","Nürnberg","[]","Nürnberg","true","false","2157.749999998603"
"","html-voicekey-response","127","777108","0.0-4.123-0.123","jkzqqvnpokh397z","{""user_agent"":""Mozilla/5.0 (Macintosh; Intel Mac OS X 10_14_4) AppleWebKit/537.36 (KHTML, like Gecko) Chrome/74.0.3729.169 Safari/537.36"",""on_chrome"":true,""on_mobile"":false,""language"":""en-US"",""screen_resolution"":[1440,900],""platform"":""MacIntel"",""timezone"":""Europe/Berlin""}","24","1683.095000001928","","","1559135904977","18","","","[]","Forchheim","false","false","2975.0400000012014"
"","html-voicekey-response","128","778945","0.0-4.124-0.124","jkzqqvnpokh397z","{""user_agent"":""Mozilla/5.0 (Macintosh; Intel Mac OS X 10_14_4) AppleWebKit/537.36 (KHTML, like Gecko) Chrome/74.0.3729.169 Safari/537.36"",""on_chrome"":true,""on_mobile"":false,""language"":""en-US"",""screen_resolution"":[1440,900],""platform"":""MacIntel"",""timezone"":""Europe/Berlin""}","24","720.4150000015273","","","1559135911963","11","","Alfeld","[]","Alfeld","true","false","1228.4800000016112"
"","html-voicekey-response","129","781362","0.0-4.125-0.125","jkzqqvnpokh397z","{""user_agent"":""Mozilla/5.0 (Macintosh; Intel Mac OS X 10_14_4) AppleWebKit/537.36 (KHTML, like Gecko) Chrome/74.0.3729.169 Safari/537.36"",""on_chrome"":true,""on_mobile"":false,""language"":""en-US"",""screen_resolution"":[1440,900],""platform"":""MacIntel"",""timezone"":""Europe/Berlin""}","24","1166.3649999990362","","","1559135913800","3","","Ingolstadt","[]","Ingolstadt","true","false","1808.5749999991385"
"","html-voicekey-response","130","783928","0.0-4.126-0.126","jkzqqvnpokh397z","{""user_agent"":""Mozilla/5.0 (Macintosh; Intel Mac OS X 10_14_4) AppleWebKit/537.36 (KHTML, like Gecko) Chrome/74.0.3729.169 Safari/537.36"",""on_chrome"":true,""on_mobile"":false,""language"":""en-US"",""screen_resolution"":[1440,900],""platform"":""MacIntel"",""timezone"":""Europe/Berlin""}","24","1582.9199999987381","","","1559135916217","5","","Aachen","[]","Aachen","true","false","1957.989999998943"
"","html-voicekey-response","131","786919","0.0-4.127-0.127","jkzqqvnpokh397z","{""user_agent"":""Mozilla/5.0 (Macintosh; Intel Mac OS X 10_14_4) AppleWebKit/537.36 (KHTML, like Gecko) Chrome/74.0.3729.169 Safari/537.36"",""on_chrome"":true,""on_mobile"":false,""language"":""en-US"",""screen_resolution"":[1440,900],""platform"":""MacIntel"",""timezone"":""Europe/Berlin""}","24","1925.1249999996276","","","1559135918783","7","","Erfurt","[]","Erfurt","true","false","2382.5849999993807"
"","html-voicekey-response","132","789369","0.0-4.128-0.128","jkzqqvnpokh397z","{""user_agent"":""Mozilla/5.0 (Macintosh; Intel Mac OS X 10_14_4) AppleWebKit/537.36 (KHTML, like Gecko) Chrome/74.0.3729.169 Safari/537.36"",""on_chrome"":true,""on_mobile"":false,""language"":""en-US"",""screen_resolution"":[1440,900],""platform"":""MacIntel"",""timezone"":""Europe/Berlin""}","24","1316.6949999993435","","","1559135921774","12","","Dessau","[]","Dessau","true","false","1842.160000000149"
"","html-voicekey-response","133","793686","0.0-4.129-0.129","jkzqqvnpokh397z","{""user_agent"":""Mozilla/5.0 (Macintosh; Intel Mac OS X 10_14_4) AppleWebKit/537.36 (KHTML, like Gecko) Chrome/74.0.3729.169 Safari/537.36"",""on_chrome"":true,""on_mobile"":false,""language"":""en-US"",""screen_resolution"":[1440,900],""platform"":""MacIntel"",""timezone"":""Europe/Berlin""}","24","3115.525000002794","","","1559135924225","1","","Magdeburg","[]","Magdeburg","true","false","3706.8900000012945"
"","html-voicekey-response","134","796160","0.0-4.130-0.130","jkzqqvnpokh397z","{""user_agent"":""Mozilla/5.0 (Macintosh; Intel Mac OS X 10_14_4) AppleWebKit/537.36 (KHTML, like Gecko) Chrome/74.0.3729.169 Safari/537.36"",""on_chrome"":true,""on_mobile"":false,""language"":""en-US"",""screen_resolution"":[1440,900],""platform"":""MacIntel"",""timezone"":""Europe/Berlin""}","24","1442.2549999997486","","","1559135928540","16","","Schwangau","[]","Schwangau","true","false","1867.295000000042"
"","html-voicekey-response","135","804011","0.0-4.131-0.131","jkzqqvnpokh397z","{""user_agent"":""Mozilla/5.0 (Macintosh; Intel Mac OS X 10_14_4) AppleWebKit/537.36 (KHTML, like Gecko) Chrome/74.0.3729.169 Safari/537.36"",""on_chrome"":true,""on_mobile"":false,""language"":""en-US"",""screen_resolution"":[1440,900],""platform"":""MacIntel"",""timezone"":""Europe/Berlin""}","24","6747.94500000074","","","1559135931017","14","","Potsdam","[]","Potsdam","true","false","7241.219999999856"
"","html-voicekey-response","136","807685","0.0-4.132-0.132","jkzqqvnpokh397z","{""user_agent"":""Mozilla/5.0 (Macintosh; Intel Mac OS X 10_14_4) AppleWebKit/537.36 (KHTML, like Gecko) Chrome/74.0.3729.169 Safari/537.36"",""on_chrome"":true,""on_mobile"":false,""language"":""en-US"",""screen_resolution"":[1440,900],""platform"":""MacIntel"",""timezone"":""Europe/Berlin""}","24","2406.964999999944","","","1559135938867","15","","Nürnberg","[]","Nürnberg","true","false","3065.8550000007963"
"","html-voicekey-response","137","810103","0.0-4.133-0.133","jkzqqvnpokh397z","{""user_agent"":""Mozilla/5.0 (Macintosh; Intel Mac OS X 10_14_4) AppleWebKit/537.36 (KHTML, like Gecko) Chrome/74.0.3729.169 Safari/537.36"",""on_chrome"":true,""on_mobile"":false,""language"":""en-US"",""screen_resolution"":[1440,900],""platform"":""MacIntel"",""timezone"":""Europe/Berlin""}","24","1201.124999997532","","","1559135942540","17","","Leipzig","[]","Leipzig","true","false","1809.6949999998324"
"","html-voicekey-response","138","814069","0.0-4.134-0.134","jkzqqvnpokh397z","{""user_agent"":""Mozilla/5.0 (Macintosh; Intel Mac OS X 10_14_4) AppleWebKit/537.36 (KHTML, like Gecko) Chrome/74.0.3729.169 Safari/537.36"",""on_chrome"":true,""on_mobile"":false,""language"":""en-US"",""screen_resolution"":[1440,900],""platform"":""MacIntel"",""timezone"":""Europe/Berlin""}","24","2881.439999999106","","","1559135944958","11","","Alfeld","[]","Alfeld","true","false","3357.625000000582"
"","html-voicekey-response","139","816377","0.0-4.135-0.135","jkzqqvnpokh397z","{""user_agent"":""Mozilla/5.0 (Macintosh; Intel Mac OS X 10_14_4) AppleWebKit/537.36 (KHTML, like Gecko) Chrome/74.0.3729.169 Safari/537.36"",""on_chrome"":true,""on_mobile"":false,""language"":""en-US"",""screen_resolution"":[1440,900],""platform"":""MacIntel"",""timezone"":""Europe/Berlin""}","24","1072.7499999974157","","","1559135948925","3","","Ingolstadt","[]","Ingolstadt","true","false","1698.46999999939"
"","html-voicekey-response","140","819392","0.0-4.136-0.136","jkzqqvnpokh397z","{""user_agent"":""Mozilla/5.0 (Macintosh; Intel Mac OS X 10_14_4) AppleWebKit/537.36 (KHTML, like Gecko) Chrome/74.0.3729.169 Safari/537.36"",""on_chrome"":true,""on_mobile"":false,""language"":""en-US"",""screen_resolution"":[1440,900],""platform"":""MacIntel"",""timezone"":""Europe/Berlin""}","24","1997.6250000016066","","","1559135951233","18","","Forchheim","[]","Forchheim","true","false","2406.190000001574"
"","html-voicekey-response","141","822859","0.0-4.137-0.137","jkzqqvnpokh397z","{""user_agent"":""Mozilla/5.0 (Macintosh; Intel Mac OS X 10_14_4) AppleWebKit/537.36 (KHTML, like Gecko) Chrome/74.0.3729.169 Safari/537.36"",""on_chrome"":true,""on_mobile"":false,""language"":""en-US"",""screen_resolution"":[1440,900],""platform"":""MacIntel"",""timezone"":""Europe/Berlin""}","24","2367.3150000012015","","","1559135954247","20","","Hamburg ","[]","Hamburg ","true","false","2858.6649999998044"
"","html-voicekey-response","142","826260","0.0-4.138-0.138","jkzqqvnpokh397z","{""user_agent"":""Mozilla/5.0 (Macintosh; Intel Mac OS X 10_14_4) AppleWebKit/537.36 (KHTML, like Gecko) Chrome/74.0.3729.169 Safari/537.36"",""on_chrome"":true,""on_mobile"":false,""language"":""en-US"",""screen_resolution"":[1440,900],""platform"":""MacIntel"",""timezone"":""Europe/Berlin""}","24","2249.245000000787","","","1559135957714","21","","Konstanz","[]","Konstanz","true","false","2791.3950000002515"
"","html-voicekey-response","143","828954","0.0-4.139-0.139","jkzqqvnpokh397z","{""user_agent"":""Mozilla/5.0 (Macintosh; Intel Mac OS X 10_14_4) AppleWebKit/537.36 (KHTML, like Gecko) Chrome/74.0.3729.169 Safari/537.36"",""on_chrome"":true,""on_mobile"":false,""language"":""en-US"",""screen_resolution"":[1440,900],""platform"":""MacIntel"",""timezone"":""Europe/Berlin""}","24","1577.510000000801","","","1559135961115","19","","Frankfurt","[]","Frankfurt","true","false","2086.2550000019837"
"","html-voicekey-response","144","834388","0.0-4.140-0.140","jkzqqvnpokh397z","{""user_agent"":""Mozilla/5.0 (Macintosh; Intel Mac OS X 10_14_4) AppleWebKit/537.36 (KHTML, like Gecko) Chrome/74.0.3729.169 Safari/537.36"",""on_chrome"":true,""on_mobile"":false,""language"":""en-US"",""screen_resolution"":[1440,900],""platform"":""MacIntel"",""timezone"":""Europe/Berlin""}","24","Infinity","","","1559135963811","11","","Alfeld","[]","Alfeld","true","false","4823.259999997332"
