"value","trial_type","trial_index","time_elapsed","internal_node_id","subject","browser_info","participant_number","rt","responses","view_history","presentation_start_time","id","text","response","keypresses","answer","correct","study","experimenter_rt"
"","call-function","0","4","0.0-0.0","4o69a5zbzclz0p7","{""user_agent"":""Mozilla/5.0 (Macintosh; Intel Mac OS X 10_14_4) AppleWebKit/537.36 (KHTML, like Gecko) Chrome/74.0.3729.169 Safari/537.36"",""on_chrome"":true,""on_mobile"":false,""language"":""en-US"",""screen_resolution"":[1440,900],""platform"":""MacIntel"",""timezone"":""Europe/Berlin""}","25","","","","","","","","","","","",""
"","survey-text","1","5813","0.0-1.0","4o69a5zbzclz0p7","{""user_agent"":""Mozilla/5.0 (Macintosh; Intel Mac OS X 10_14_4) AppleWebKit/537.36 (KHTML, like Gecko) Chrome/74.0.3729.169 Safari/537.36"",""on_chrome"":true,""on_mobile"":false,""language"":""en-US"",""screen_resolution"":[1440,900],""platform"":""MacIntel"",""timezone"":""Europe/Berlin""}","25","5807","{""Q0"":""25""}","","","","","","","","","",""
"","instructions","2","122003","0.0-2.0","4o69a5zbzclz0p7","{""user_agent"":""Mozilla/5.0 (Macintosh; Intel Mac OS X 10_14_4) AppleWebKit/537.36 (KHTML, like Gecko) Chrome/74.0.3729.169 Safari/537.36"",""on_chrome"":true,""on_mobile"":false,""language"":""en-US"",""screen_resolution"":[1440,900],""platform"":""MacIntel"",""timezone"":""Europe/Berlin""}","25","116190","","[{""page_index"":0,""viewing_time"":116189}]","","","","","","","","",""
"","call-function","3","122003","0.0-3.0","4o69a5zbzclz0p7","{""user_agent"":""Mozilla/5.0 (Macintosh; Intel Mac OS X 10_14_4) AppleWebKit/537.36 (KHTML, like Gecko) Chrome/74.0.3729.169 Safari/537.36"",""on_chrome"":true,""on_mobile"":false,""language"":""en-US"",""screen_resolution"":[1440,900],""platform"":""MacIntel"",""timezone"":""Europe/Berlin""}","25","","","","","","","","","","","",""
"","html-voicekey-response","4","128327","0.0-4.0-0.0","4o69a5zbzclz0p7","{""user_agent"":""Mozilla/5.0 (Macintosh; Intel Mac OS X 10_14_4) AppleWebKit/537.36 (KHTML, like Gecko) Chrome/74.0.3729.169 Safari/537.36"",""on_chrome"":true,""on_mobile"":false,""language"":""en-US"",""screen_resolution"":[1440,900],""platform"":""MacIntel"",""timezone"":""Europe/Berlin""}","25","3459.0100000003354","","","1559657296617","1","","Magdeburg","[]","Magdeburg","true","true","5714.91499998956"
"","html-voicekey-response","5","132286","0.0-4.1-0.1","4o69a5zbzclz0p7","{""user_agent"":""Mozilla/5.0 (Macintosh; Intel Mac OS X 10_14_4) AppleWebKit/537.36 (KHTML, like Gecko) Chrome/74.0.3729.169 Safari/537.36"",""on_chrome"":true,""on_mobile"":false,""language"":""en-US"",""screen_resolution"":[1440,900],""platform"":""MacIntel"",""timezone"":""Europe/Berlin""}","25","2629.795000024233","","","1559657302941","1","","Magdeburg","[]","Magdeburg","true","false","3355.2500000223517"
"","html-voicekey-response","6","134993","0.0-4.2-0.2","4o69a5zbzclz0p7","{""user_agent"":""Mozilla/5.0 (Macintosh; Intel Mac OS X 10_14_4) AppleWebKit/537.36 (KHTML, like Gecko) Chrome/74.0.3729.169 Safari/537.36"",""on_chrome"":true,""on_mobile"":false,""language"":""en-US"",""screen_resolution"":[1440,900],""platform"":""MacIntel"",""timezone"":""Europe/Berlin""}","25","1522.140000024438","","","1559657306898","2","","Berlin","[]","Berlin","true","true","2105.6750000279862"
"","html-voicekey-response","7","138060","0.0-4.3-0.3","4o69a5zbzclz0p7","{""user_agent"":""Mozilla/5.0 (Macintosh; Intel Mac OS X 10_14_4) AppleWebKit/537.36 (KHTML, like Gecko) Chrome/74.0.3729.169 Safari/537.36"",""on_chrome"":true,""on_mobile"":false,""language"":""en-US"",""screen_resolution"":[1440,900],""platform"":""MacIntel"",""timezone"":""Europe/Berlin""}","25","1856.0199999863748","","","1559657309606","2","","Berlin","[]","Berlin","true","false","2464.5949999976438"
"","html-voicekey-response","8","141243","0.0-4.4-0.4","4o69a5zbzclz0p7","{""user_agent"":""Mozilla/5.0 (Macintosh; Intel Mac OS X 10_14_4) AppleWebKit/537.36 (KHTML, like Gecko) Chrome/74.0.3729.169 Safari/537.36"",""on_chrome"":true,""on_mobile"":false,""language"":""en-US"",""screen_resolution"":[1440,900],""platform"":""MacIntel"",""timezone"":""Europe/Berlin""}","25","1689.9899999933318","","","1559657312672","3","","Ingolstadt","[]","Ingolstadt","true","true","2581.5850000071805"
"","html-voicekey-response","9","144844","0.0-4.5-0.5","4o69a5zbzclz0p7","{""user_agent"":""Mozilla/5.0 (Macintosh; Intel Mac OS X 10_14_4) AppleWebKit/537.36 (KHTML, like Gecko) Chrome/74.0.3729.169 Safari/537.36"",""on_chrome"":true,""on_mobile"":false,""language"":""en-US"",""screen_resolution"":[1440,900],""platform"":""MacIntel"",""timezone"":""Europe/Berlin""}","25","2005.8799999913667","","","1559657315856","4","","Würzburg","[]","Würzburg","true","true","2998.344999999972"
"","html-voicekey-response","10","148636","0.0-4.6-0.6","4o69a5zbzclz0p7","{""user_agent"":""Mozilla/5.0 (Macintosh; Intel Mac OS X 10_14_4) AppleWebKit/537.36 (KHTML, like Gecko) Chrome/74.0.3729.169 Safari/537.36"",""on_chrome"":true,""on_mobile"":false,""language"":""en-US"",""screen_resolution"":[1440,900],""platform"":""MacIntel"",""timezone"":""Europe/Berlin""}","25","1831.0100000033622","","","1559657319456","3","","Ingolstadt","[]","Ingolstadt","true","false","3190.535000001546"
"","html-voicekey-response","11","151337","0.0-4.7-0.7","4o69a5zbzclz0p7","{""user_agent"":""Mozilla/5.0 (Macintosh; Intel Mac OS X 10_14_4) AppleWebKit/537.36 (KHTML, like Gecko) Chrome/74.0.3729.169 Safari/537.36"",""on_chrome"":true,""on_mobile"":false,""language"":""en-US"",""screen_resolution"":[1440,900],""platform"":""MacIntel"",""timezone"":""Europe/Berlin""}","25","1005.76000000895","","","1559657323249","4","","Würzburg","[]","Würzburg","true","false","2098.200000007637"
"","html-voicekey-response","12","154054","0.0-4.8-0.8","4o69a5zbzclz0p7","{""user_agent"":""Mozilla/5.0 (Macintosh; Intel Mac OS X 10_14_4) AppleWebKit/537.36 (KHTML, like Gecko) Chrome/74.0.3729.169 Safari/537.36"",""on_chrome"":true,""on_mobile"":false,""language"":""en-US"",""screen_resolution"":[1440,900],""platform"":""MacIntel"",""timezone"":""Europe/Berlin""}","25","1189.0849999998231","","","1559657325949","5","","Aachen","[]","Aachen","true","true","2114.4949999870732"
"","html-voicekey-response","13","156877","0.0-4.9-0.9","4o69a5zbzclz0p7","{""user_agent"":""Mozilla/5.0 (Macintosh; Intel Mac OS X 10_14_4) AppleWebKit/537.36 (KHTML, like Gecko) Chrome/74.0.3729.169 Safari/537.36"",""on_chrome"":true,""on_mobile"":false,""language"":""en-US"",""screen_resolution"":[1440,900],""platform"":""MacIntel"",""timezone"":""Europe/Berlin""}","25","1195.4800000038","","","1559657328666","6","","Dresden","[]","Dresden","true","true","2221.079999988433"
"","html-voicekey-response","14","160193","0.0-4.10-0.10","4o69a5zbzclz0p7","{""user_agent"":""Mozilla/5.0 (Macintosh; Intel Mac OS X 10_14_4) AppleWebKit/537.36 (KHTML, like Gecko) Chrome/74.0.3729.169 Safari/537.36"",""on_chrome"":true,""on_mobile"":false,""language"":""en-US"",""screen_resolution"":[1440,900],""platform"":""MacIntel"",""timezone"":""Europe/Berlin""}","25","1987.8650000117254","","","1559657331490","5","","Aachen","[]","Aachen","true","false","2713.2450000208337"
"","html-voicekey-response","15","163494","0.0-4.11-0.11","4o69a5zbzclz0p7","{""user_agent"":""Mozilla/5.0 (Macintosh; Intel Mac OS X 10_14_4) AppleWebKit/537.36 (KHTML, like Gecko) Chrome/74.0.3729.169 Safari/537.36"",""on_chrome"":true,""on_mobile"":false,""language"":""en-US"",""screen_resolution"":[1440,900],""platform"":""MacIntel"",""timezone"":""Europe/Berlin""}","25","1589.4650000062306","","","1559657334805","6","","Dresden","[]","Dresden","true","false","2697.8999999992084"
"","html-voicekey-response","16","166352","0.0-4.12-0.12","4o69a5zbzclz0p7","{""user_agent"":""Mozilla/5.0 (Macintosh; Intel Mac OS X 10_14_4) AppleWebKit/537.36 (KHTML, like Gecko) Chrome/74.0.3729.169 Safari/537.36"",""on_chrome"":true,""on_mobile"":false,""language"":""en-US"",""screen_resolution"":[1440,900],""platform"":""MacIntel"",""timezone"":""Europe/Berlin""}","25","1371.9000000072178","","","1559657338106","7","","Erfurt","[]","Erfurt","true","true","2255.9849999961443"
"","html-voicekey-response","17","169185","0.0-4.13-0.13","4o69a5zbzclz0p7","{""user_agent"":""Mozilla/5.0 (Macintosh; Intel Mac OS X 10_14_4) AppleWebKit/537.36 (KHTML, like Gecko) Chrome/74.0.3729.169 Safari/537.36"",""on_chrome"":true,""on_mobile"":false,""language"":""en-US"",""screen_resolution"":[1440,900],""platform"":""MacIntel"",""timezone"":""Europe/Berlin""}","25","1422.1099999939092","","","1559657340964","8","","Gotha","[]","Gotha","true","true","2230.9600000153296"
"","html-voicekey-response","18","172786","0.0-4.14-0.14","4o69a5zbzclz0p7","{""user_agent"":""Mozilla/5.0 (Macintosh; Intel Mac OS X 10_14_4) AppleWebKit/537.36 (KHTML, like Gecko) Chrome/74.0.3729.169 Safari/537.36"",""on_chrome"":true,""on_mobile"":false,""language"":""en-US"",""screen_resolution"":[1440,900],""platform"":""MacIntel"",""timezone"":""Europe/Berlin""}","25","1539.6250000138302","","","1559657343797","7","","Erfurt","[]","Erfurt","true","false","2998.50499999593"
"","html-voicekey-response","19","175138","0.0-4.15-0.15","4o69a5zbzclz0p7","{""user_agent"":""Mozilla/5.0 (Macintosh; Intel Mac OS X 10_14_4) AppleWebKit/537.36 (KHTML, like Gecko) Chrome/74.0.3729.169 Safari/537.36"",""on_chrome"":true,""on_mobile"":false,""language"":""en-US"",""screen_resolution"":[1440,900],""platform"":""MacIntel"",""timezone"":""Europe/Berlin""}","25","838.3150000098161","","","1559657347398","8","","Gotha","[]","Gotha","true","false","1747.0500000054017"
"","html-voicekey-response","20","177558","0.0-4.16-0.16","4o69a5zbzclz0p7","{""user_agent"":""Mozilla/5.0 (Macintosh; Intel Mac OS X 10_14_4) AppleWebKit/537.36 (KHTML, like Gecko) Chrome/74.0.3729.169 Safari/537.36"",""on_chrome"":true,""on_mobile"":false,""language"":""en-US"",""screen_resolution"":[1440,900],""platform"":""MacIntel"",""timezone"":""Europe/Berlin""}","25","1227.0700000024867","","","1559657349750","2","","Berlin","[]","Berlin","true","false","1817.2999999951571"
"","html-voicekey-response","21","180025","0.0-4.17-0.17","4o69a5zbzclz0p7","{""user_agent"":""Mozilla/5.0 (Macintosh; Intel Mac OS X 10_14_4) AppleWebKit/537.36 (KHTML, like Gecko) Chrome/74.0.3729.169 Safari/537.36"",""on_chrome"":true,""on_mobile"":false,""language"":""en-US"",""screen_resolution"":[1440,900],""platform"":""MacIntel"",""timezone"":""Europe/Berlin""}","25","1156.2349999820349","","","1559657352171","1","","Magdeburg","[]","Magdeburg","true","false","1864.3999999912921"
"","html-voicekey-response","22","184358","0.0-4.18-0.18","4o69a5zbzclz0p7","{""user_agent"":""Mozilla/5.0 (Macintosh; Intel Mac OS X 10_14_4) AppleWebKit/537.36 (KHTML, like Gecko) Chrome/74.0.3729.169 Safari/537.36"",""on_chrome"":true,""on_mobile"":false,""language"":""en-US"",""screen_resolution"":[1440,900],""platform"":""MacIntel"",""timezone"":""Europe/Berlin""}","25","2856.2649999892806","","","1559657354637","9","","München","[]","München","true","true","3731.274999998277"
"","html-voicekey-response","23","187097","0.0-4.19-0.19","4o69a5zbzclz0p7","{""user_agent"":""Mozilla/5.0 (Macintosh; Intel Mac OS X 10_14_4) AppleWebKit/537.36 (KHTML, like Gecko) Chrome/74.0.3729.169 Safari/537.36"",""on_chrome"":true,""on_mobile"":false,""language"":""en-US"",""screen_resolution"":[1440,900],""platform"":""MacIntel"",""timezone"":""Europe/Berlin""}","25","1277.0000000108034","","","1559657358971","10","","Heidelberg","[]","Heidelberg","true","true","2136.529999988852"
"","html-voicekey-response","24","189931","0.0-4.20-0.20","4o69a5zbzclz0p7","{""user_agent"":""Mozilla/5.0 (Macintosh; Intel Mac OS X 10_14_4) AppleWebKit/537.36 (KHTML, like Gecko) Chrome/74.0.3729.169 Safari/537.36"",""on_chrome"":true,""on_mobile"":false,""language"":""en-US"",""screen_resolution"":[1440,900],""platform"":""MacIntel"",""timezone"":""Europe/Berlin""}","25","1606.3099999826868","","","1559657361710","9","","München","[]","München","true","false","2231.304999993881"
"","html-voicekey-response","25","192181","0.0-4.21-0.21","4o69a5zbzclz0p7","{""user_agent"":""Mozilla/5.0 (Macintosh; Intel Mac OS X 10_14_4) AppleWebKit/537.36 (KHTML, like Gecko) Chrome/74.0.3729.169 Safari/537.36"",""on_chrome"":true,""on_mobile"":false,""language"":""en-US"",""screen_resolution"":[1440,900],""platform"":""MacIntel"",""timezone"":""Europe/Berlin""}","25","654.5949999798089","","","1559657364544","10","","Heidelberg","[]","Heidelberg","true","false","1647.3349999869242"
"","html-voicekey-response","26","195784","0.0-4.22-0.22","4o69a5zbzclz0p7","{""user_agent"":""Mozilla/5.0 (Macintosh; Intel Mac OS X 10_14_4) AppleWebKit/537.36 (KHTML, like Gecko) Chrome/74.0.3729.169 Safari/537.36"",""on_chrome"":true,""on_mobile"":false,""language"":""en-US"",""screen_resolution"":[1440,900],""platform"":""MacIntel"",""timezone"":""Europe/Berlin""}","25","2039.5749999823515","","","1559657366793","3","","Ingolstadt","[]","Ingolstadt","true","false","2998.025000008056"
"","html-voicekey-response","27","198571","0.0-4.23-0.23","4o69a5zbzclz0p7","{""user_agent"":""Mozilla/5.0 (Macintosh; Intel Mac OS X 10_14_4) AppleWebKit/537.36 (KHTML, like Gecko) Chrome/74.0.3729.169 Safari/537.36"",""on_chrome"":true,""on_mobile"":false,""language"":""en-US"",""screen_resolution"":[1440,900],""platform"":""MacIntel"",""timezone"":""Europe/Berlin""}","25","1325.3300000013319","","","1559657370396","4","","Würzburg","[]","Würzburg","true","false","2185.0500000000466"
"","html-voicekey-response","28","202104","0.0-4.24-0.24","4o69a5zbzclz0p7","{""user_agent"":""Mozilla/5.0 (Macintosh; Intel Mac OS X 10_14_4) AppleWebKit/537.36 (KHTML, like Gecko) Chrome/74.0.3729.169 Safari/537.36"",""on_chrome"":true,""on_mobile"":false,""language"":""en-US"",""screen_resolution"":[1440,900],""platform"":""MacIntel"",""timezone"":""Europe/Berlin""}","25","1921.455000012275","","","1559657373184","11","","Alfeld","[]","Alfeld","true","true","2929.7350000124425"
"","html-voicekey-response","29","211906","0.0-4.25-0.25","4o69a5zbzclz0p7","{""user_agent"":""Mozilla/5.0 (Macintosh; Intel Mac OS X 10_14_4) AppleWebKit/537.36 (KHTML, like Gecko) Chrome/74.0.3729.169 Safari/537.36"",""on_chrome"":true,""on_mobile"":false,""language"":""en-US"",""screen_resolution"":[1440,900],""platform"":""MacIntel"",""timezone"":""Europe/Berlin""}","25","Infinity","","","1559657376717","5","","Aachen","[]","Aachen","true","false","9197.775000007823"
"","html-voicekey-response","30","218367","0.0-4.26-0.26","4o69a5zbzclz0p7","{""user_agent"":""Mozilla/5.0 (Macintosh; Intel Mac OS X 10_14_4) AppleWebKit/537.36 (KHTML, like Gecko) Chrome/74.0.3729.169 Safari/537.36"",""on_chrome"":true,""on_mobile"":false,""language"":""en-US"",""screen_resolution"":[1440,900],""platform"":""MacIntel"",""timezone"":""Europe/Berlin""}","25","4964.615000013355","","","1559657386519","11","","Alfeld","[]","Alfeld","true","false","5855.884999997215"
"","html-voicekey-response","31","221124","0.0-4.27-0.27","4o69a5zbzclz0p7","{""user_agent"":""Mozilla/5.0 (Macintosh; Intel Mac OS X 10_14_4) AppleWebKit/537.36 (KHTML, like Gecko) Chrome/74.0.3729.169 Safari/537.36"",""on_chrome"":true,""on_mobile"":false,""language"":""en-US"",""screen_resolution"":[1440,900],""platform"":""MacIntel"",""timezone"":""Europe/Berlin""}","25","1212.0200000152458","","","1559657392980","6","","Dresden","[]","Dresden","true","false","2154.710000002524"
"","html-voicekey-response","32","224291","0.0-4.28-0.28","4o69a5zbzclz0p7","{""user_agent"":""Mozilla/5.0 (Macintosh; Intel Mac OS X 10_14_4) AppleWebKit/537.36 (KHTML, like Gecko) Chrome/74.0.3729.169 Safari/537.36"",""on_chrome"":true,""on_mobile"":false,""language"":""en-US"",""screen_resolution"":[1440,900],""platform"":""MacIntel"",""timezone"":""Europe/Berlin""}","25","1854.4549999731594","","","1559657395738","7","","Erfurt","[]","Erfurt","true","false","2563.5549999715295"
"","html-voicekey-response","33","227524","0.0-4.29-0.29","4o69a5zbzclz0p7","{""user_agent"":""Mozilla/5.0 (Macintosh; Intel Mac OS X 10_14_4) AppleWebKit/537.36 (KHTML, like Gecko) Chrome/74.0.3729.169 Safari/537.36"",""on_chrome"":true,""on_mobile"":false,""language"":""en-US"",""screen_resolution"":[1440,900],""platform"":""MacIntel"",""timezone"":""Europe/Berlin""}","25","2067.4850000157953","","","1559657398907","8","","Gotha","[]","Gotha","true","false","2627.2400000016205"
"","html-voicekey-response","34","230298","0.0-4.30-0.30","4o69a5zbzclz0p7","{""user_agent"":""Mozilla/5.0 (Macintosh; Intel Mac OS X 10_14_4) AppleWebKit/537.36 (KHTML, like Gecko) Chrome/74.0.3729.169 Safari/537.36"",""on_chrome"":true,""on_mobile"":false,""language"":""en-US"",""screen_resolution"":[1440,900],""platform"":""MacIntel"",""timezone"":""Europe/Berlin""}","25","1471.62000000556","","","1559657402137","12","","Dessau","[]","Dessau","true","true","2171.245000005001"
"","html-voicekey-response","35","233331","0.0-4.31-0.31","4o69a5zbzclz0p7","{""user_agent"":""Mozilla/5.0 (Macintosh; Intel Mac OS X 10_14_4) AppleWebKit/537.36 (KHTML, like Gecko) Chrome/74.0.3729.169 Safari/537.36"",""on_chrome"":true,""on_mobile"":false,""language"":""en-US"",""screen_resolution"":[1440,900],""platform"":""MacIntel"",""timezone"":""Europe/Berlin""}","25","1355.7149999922608","","","1559657404911","13","","Chemnitz","[]","Chemnitz","true","true","2430.5250000033993"
"","html-voicekey-response","36","237131","0.0-4.32-0.32","4o69a5zbzclz0p7","{""user_agent"":""Mozilla/5.0 (Macintosh; Intel Mac OS X 10_14_4) AppleWebKit/537.36 (KHTML, like Gecko) Chrome/74.0.3729.169 Safari/537.36"",""on_chrome"":true,""on_mobile"":false,""language"":""en-US"",""screen_resolution"":[1440,900],""platform"":""MacIntel"",""timezone"":""Europe/Berlin""}","25","2505.600000012992","","","1559657407944","12","","Dessau","[]","Dessau","true","false","3197.2250000108033"
"","html-voicekey-response","37","239900","0.0-4.33-0.33","4o69a5zbzclz0p7","{""user_agent"":""Mozilla/5.0 (Macintosh; Intel Mac OS X 10_14_4) AppleWebKit/537.36 (KHTML, like Gecko) Chrome/74.0.3729.169 Safari/537.36"",""on_chrome"":true,""on_mobile"":false,""language"":""en-US"",""screen_resolution"":[1440,900],""platform"":""MacIntel"",""timezone"":""Europe/Berlin""}","25","1338.510000010347","","","1559657411744","13","","Chemnitz","[]","Chemnitz","true","false","2163.575000013225"
"","html-voicekey-response","38","243089","0.0-4.34-0.34","4o69a5zbzclz0p7","{""user_agent"":""Mozilla/5.0 (Macintosh; Intel Mac OS X 10_14_4) AppleWebKit/537.36 (KHTML, like Gecko) Chrome/74.0.3729.169 Safari/537.36"",""on_chrome"":true,""on_mobile"":false,""language"":""en-US"",""screen_resolution"":[1440,900],""platform"":""MacIntel"",""timezone"":""Europe/Berlin""}","25","1792.8399999890012","","","1559657414513","9","","München","[]","München","true","false","2584.984999994049"
"","html-voicekey-response","39","245905","0.0-4.35-0.35","4o69a5zbzclz0p7","{""user_agent"":""Mozilla/5.0 (Macintosh; Intel Mac OS X 10_14_4) AppleWebKit/537.36 (KHTML, like Gecko) Chrome/74.0.3729.169 Safari/537.36"",""on_chrome"":true,""on_mobile"":false,""language"":""en-US"",""screen_resolution"":[1440,900],""platform"":""MacIntel"",""timezone"":""Europe/Berlin""}","25","1219.389999992773","","","1559657417704","10","","Heidelberg","[]","Heidelberg","true","false","2211.6950000054203"
"","html-voicekey-response","40","254108","0.0-4.36-0.36","4o69a5zbzclz0p7","{""user_agent"":""Mozilla/5.0 (Macintosh; Intel Mac OS X 10_14_4) AppleWebKit/537.36 (KHTML, like Gecko) Chrome/74.0.3729.169 Safari/537.36"",""on_chrome"":true,""on_mobile"":false,""language"":""en-US"",""screen_resolution"":[1440,900],""platform"":""MacIntel"",""timezone"":""Europe/Berlin""}","25","1771.2649999974296","","","1559657420518","5","","","[]","Aachen","false","false","4197.000000014668"
"","html-voicekey-response","41","260897","0.0-4.37-0.37","4o69a5zbzclz0p7","{""user_agent"":""Mozilla/5.0 (Macintosh; Intel Mac OS X 10_14_4) AppleWebKit/537.36 (KHTML, like Gecko) Chrome/74.0.3729.169 Safari/537.36"",""on_chrome"":true,""on_mobile"":false,""language"":""en-US"",""screen_resolution"":[1440,900],""platform"":""MacIntel"",""timezone"":""Europe/Berlin""}","25","5510.39499999918","","","1559657428720","14","","Potsdam","[]","Potsdam","true","true","6186.210000014398"
"","html-voicekey-response","42","263805","0.0-4.38-0.38","4o69a5zbzclz0p7","{""user_agent"":""Mozilla/5.0 (Macintosh; Intel Mac OS X 10_14_4) AppleWebKit/537.36 (KHTML, like Gecko) Chrome/74.0.3729.169 Safari/537.36"",""on_chrome"":true,""on_mobile"":false,""language"":""en-US"",""screen_resolution"":[1440,900],""platform"":""MacIntel"",""timezone"":""Europe/Berlin""}","25","1446.9450000122656","","","1559657435510","15","","Nürnberg","[]","Nürnberg","true","true","2305.660000012722"
"","html-voicekey-response","43","268588","0.0-4.39-0.39","4o69a5zbzclz0p7","{""user_agent"":""Mozilla/5.0 (Macintosh; Intel Mac OS X 10_14_4) AppleWebKit/537.36 (KHTML, like Gecko) Chrome/74.0.3729.169 Safari/537.36"",""on_chrome"":true,""on_mobile"":false,""language"":""en-US"",""screen_resolution"":[1440,900],""platform"":""MacIntel"",""timezone"":""Europe/Berlin""}","25","3338.784999979753","","","1559657438418","14","","Potsdam","[]","Potsdam","true","false","4180.2650000026915"
"","html-voicekey-response","44","270988","0.0-4.40-0.40","4o69a5zbzclz0p7","{""user_agent"":""Mozilla/5.0 (Macintosh; Intel Mac OS X 10_14_4) AppleWebKit/537.36 (KHTML, like Gecko) Chrome/74.0.3729.169 Safari/537.36"",""on_chrome"":true,""on_mobile"":false,""language"":""en-US"",""screen_resolution"":[1440,900],""platform"":""MacIntel"",""timezone"":""Europe/Berlin""}","25","788.7650000137277","","","1559657443201","15","","Nürnberg","[]","Nürnberg","true","false","1797.7350000001024"
"","html-voicekey-response","45","281114","0.0-4.41-0.41","4o69a5zbzclz0p7","{""user_agent"":""Mozilla/5.0 (Macintosh; Intel Mac OS X 10_14_4) AppleWebKit/537.36 (KHTML, like Gecko) Chrome/74.0.3729.169 Safari/537.36"",""on_chrome"":true,""on_mobile"":false,""language"":""en-US"",""screen_resolution"":[1440,900],""platform"":""MacIntel"",""timezone"":""Europe/Berlin""}","25","8846.774999992549","","","1559657445601","11","","Alfeld","[]","Alfeld","true","false","9522.369999991497"
"","html-voicekey-response","46","299005","0.0-4.42-0.42","4o69a5zbzclz0p7","{""user_agent"":""Mozilla/5.0 (Macintosh; Intel Mac OS X 10_14_4) AppleWebKit/537.36 (KHTML, like Gecko) Chrome/74.0.3729.169 Safari/537.36"",""on_chrome"":true,""on_mobile"":false,""language"":""en-US"",""screen_resolution"":[1440,900],""platform"":""MacIntel"",""timezone"":""Europe/Berlin""}","25","2445.239999980759","","","1559657455727","5","","","[]","Aachen","false","false","13887.324999988778"
"","html-voicekey-response","47","301311","0.0-4.43-0.43","4o69a5zbzclz0p7","{""user_agent"":""Mozilla/5.0 (Macintosh; Intel Mac OS X 10_14_4) AppleWebKit/537.36 (KHTML, like Gecko) Chrome/74.0.3729.169 Safari/537.36"",""on_chrome"":true,""on_mobile"":false,""language"":""en-US"",""screen_resolution"":[1440,900],""platform"":""MacIntel"",""timezone"":""Europe/Berlin""}","25","1125.639999992773","","","1559657473620","12","","Dessau","[]","Dessau","true","false","1701.3649999862537"
"","html-voicekey-response","48","305378","0.0-4.44-0.44","4o69a5zbzclz0p7","{""user_agent"":""Mozilla/5.0 (Macintosh; Intel Mac OS X 10_14_4) AppleWebKit/537.36 (KHTML, like Gecko) Chrome/74.0.3729.169 Safari/537.36"",""on_chrome"":true,""on_mobile"":false,""language"":""en-US"",""screen_resolution"":[1440,900],""platform"":""MacIntel"",""timezone"":""Europe/Berlin""}","25","2636.9000000211877","","","1559657475926","13","","Chemnitz","[]","Chemnitz","true","false","3462.020000006305"
"","html-voicekey-response","49","307939","0.0-4.45-0.45","4o69a5zbzclz0p7","{""user_agent"":""Mozilla/5.0 (Macintosh; Intel Mac OS X 10_14_4) AppleWebKit/537.36 (KHTML, like Gecko) Chrome/74.0.3729.169 Safari/537.36"",""on_chrome"":true,""on_mobile"":false,""language"":""en-US"",""screen_resolution"":[1440,900],""platform"":""MacIntel"",""timezone"":""Europe/Berlin""}","25","1272.4100000139792","","","1559657479991","5","","Aachen","[]","Aachen","true","false","1958.8149999908637"
"","html-voicekey-response","50","310973","0.0-4.46-0.46","4o69a5zbzclz0p7","{""user_agent"":""Mozilla/5.0 (Macintosh; Intel Mac OS X 10_14_4) AppleWebKit/537.36 (KHTML, like Gecko) Chrome/74.0.3729.169 Safari/537.36"",""on_chrome"":true,""on_mobile"":false,""language"":""en-US"",""screen_resolution"":[1440,900],""platform"":""MacIntel"",""timezone"":""Europe/Berlin""}","25","1853.9499999986497","","","1559657482554","16","","Schwangau","[]","Schwangau","true","true","2429.4349999981932"
"","html-voicekey-response","51","314039","0.0-4.47-0.47","4o69a5zbzclz0p7","{""user_agent"":""Mozilla/5.0 (Macintosh; Intel Mac OS X 10_14_4) AppleWebKit/537.36 (KHTML, like Gecko) Chrome/74.0.3729.169 Safari/537.36"",""on_chrome"":true,""on_mobile"":false,""language"":""en-US"",""screen_resolution"":[1440,900],""platform"":""MacIntel"",""timezone"":""Europe/Berlin""}","25","1787.6600000107196","","","1559657485587","14","","Potsdam","[]","Potsdam","true","false","2461.9600000150967"
"","html-voicekey-response","52","316857","0.0-4.48-0.48","4o69a5zbzclz0p7","{""user_agent"":""Mozilla/5.0 (Macintosh; Intel Mac OS X 10_14_4) AppleWebKit/537.36 (KHTML, like Gecko) Chrome/74.0.3729.169 Safari/537.36"",""on_chrome"":true,""on_mobile"":false,""language"":""en-US"",""screen_resolution"":[1440,900],""platform"":""MacIntel"",""timezone"":""Europe/Berlin""}","25","1387.3249999977184","","","1559657488653","16","","Schwangau","[]","Schwangau","true","false","2213.1899999803863"
"","html-voicekey-response","53","319998","0.0-4.49-0.49","4o69a5zbzclz0p7","{""user_agent"":""Mozilla/5.0 (Macintosh; Intel Mac OS X 10_14_4) AppleWebKit/537.36 (KHTML, like Gecko) Chrome/74.0.3729.169 Safari/537.36"",""on_chrome"":true,""on_mobile"":false,""language"":""en-US"",""screen_resolution"":[1440,900],""platform"":""MacIntel"",""timezone"":""Europe/Berlin""}","25","1580.6649999957067","","","1559657491469","11","","Alfeld","[]","Alfeld","true","false","2538.620000006631"
"","html-voicekey-response","54","322798","0.0-4.50-0.50","4o69a5zbzclz0p7","{""user_agent"":""Mozilla/5.0 (Macintosh; Intel Mac OS X 10_14_4) AppleWebKit/537.36 (KHTML, like Gecko) Chrome/74.0.3729.169 Safari/537.36"",""on_chrome"":true,""on_mobile"":false,""language"":""en-US"",""screen_resolution"":[1440,900],""platform"":""MacIntel"",""timezone"":""Europe/Berlin""}","25","1338.6300000218675","","","1559657494611","15","","Nürnberg","[]","Nürnberg","true","false","2197.2650000243448"
"","html-voicekey-response","55","326148","0.0-4.51-0.51","4o69a5zbzclz0p7","{""user_agent"":""Mozilla/5.0 (Macintosh; Intel Mac OS X 10_14_4) AppleWebKit/537.36 (KHTML, like Gecko) Chrome/74.0.3729.169 Safari/537.36"",""on_chrome"":true,""on_mobile"":false,""language"":""en-US"",""screen_resolution"":[1440,900],""platform"":""MacIntel"",""timezone"":""Europe/Berlin""}","25","1838.1299999981188","","","1559657497411","17","","Leipzig","[]","Leipzig","true","true","2747.4999999976717"
"","html-voicekey-response","56","328923","0.0-4.52-0.52","4o69a5zbzclz0p7","{""user_agent"":""Mozilla/5.0 (Macintosh; Intel Mac OS X 10_14_4) AppleWebKit/537.36 (KHTML, like Gecko) Chrome/74.0.3729.169 Safari/537.36"",""on_chrome"":true,""on_mobile"":false,""language"":""en-US"",""screen_resolution"":[1440,900],""platform"":""MacIntel"",""timezone"":""Europe/Berlin""}","25","1329.1449999758975","","","1559657500761","18","","Forchheim","[]","Forchheim","true","true","2171.359999978449"
"","html-voicekey-response","57","331889","0.0-4.53-0.53","4o69a5zbzclz0p7","{""user_agent"":""Mozilla/5.0 (Macintosh; Intel Mac OS X 10_14_4) AppleWebKit/537.36 (KHTML, like Gecko) Chrome/74.0.3729.169 Safari/537.36"",""on_chrome"":true,""on_mobile"":false,""language"":""en-US"",""screen_resolution"":[1440,900],""platform"":""MacIntel"",""timezone"":""Europe/Berlin""}","25","1455.5349999953528","","","1559657503535","17","","Leipzig","[]","Leipzig","true","false","2364.2349999863654"
"","html-voicekey-response","58","334190","0.0-4.54-0.54","4o69a5zbzclz0p7","{""user_agent"":""Mozilla/5.0 (Macintosh; Intel Mac OS X 10_14_4) AppleWebKit/537.36 (KHTML, like Gecko) Chrome/74.0.3729.169 Safari/537.36"",""on_chrome"":true,""on_mobile"":false,""language"":""en-US"",""screen_resolution"":[1440,900],""platform"":""MacIntel"",""timezone"":""Europe/Berlin""}","25","1021.9500000037718","","","1559657506502","18","","Forchheim","[]","Forchheim","true","false","1698.1500000110827"
"","html-voicekey-response","59","336739","0.0-4.55-0.55","4o69a5zbzclz0p7","{""user_agent"":""Mozilla/5.0 (Macintosh; Intel Mac OS X 10_14_4) AppleWebKit/537.36 (KHTML, like Gecko) Chrome/74.0.3729.169 Safari/537.36"",""on_chrome"":true,""on_mobile"":false,""language"":""en-US"",""screen_resolution"":[1440,900],""platform"":""MacIntel"",""timezone"":""Europe/Berlin""}","25","1237.6700000111946","","","1559657508803","19","","Frankfurt","[]","Frankfurt","true","true","1946.5199999976903"
"","html-voicekey-response","60","339432","0.0-4.56-0.56","4o69a5zbzclz0p7","{""user_agent"":""Mozilla/5.0 (Macintosh; Intel Mac OS X 10_14_4) AppleWebKit/537.36 (KHTML, like Gecko) Chrome/74.0.3729.169 Safari/537.36"",""on_chrome"":true,""on_mobile"":false,""language"":""en-US"",""screen_resolution"":[1440,900],""platform"":""MacIntel"",""timezone"":""Europe/Berlin""}","25","1396.019999994524","","","1559657511352","20","","Hamburg ","[]","Hamburg ","true","true","2089.2499999899883"
"","html-voicekey-response","61","343915","0.0-4.57-0.57","4o69a5zbzclz0p7","{""user_agent"":""Mozilla/5.0 (Macintosh; Intel Mac OS X 10_14_4) AppleWebKit/537.36 (KHTML, like Gecko) Chrome/74.0.3729.169 Safari/537.36"",""on_chrome"":true,""on_mobile"":false,""language"":""en-US"",""screen_resolution"":[1440,900],""platform"":""MacIntel"",""timezone"":""Europe/Berlin""}","25","3203.5600000034087","","","1559657514045","19","","Frankfurt","[]","Frankfurt","true","false","3879.4900000211783"
"","html-voicekey-response","62","346281","0.0-4.58-0.58","4o69a5zbzclz0p7","{""user_agent"":""Mozilla/5.0 (Macintosh; Intel Mac OS X 10_14_4) AppleWebKit/537.36 (KHTML, like Gecko) Chrome/74.0.3729.169 Safari/537.36"",""on_chrome"":true,""on_mobile"":false,""language"":""en-US"",""screen_resolution"":[1440,900],""platform"":""MacIntel"",""timezone"":""Europe/Berlin""}","25","904.8949999940581","","","1559657518528","20","","Hamburg ","[]","Hamburg ","true","false","1762.864999996964"
"","html-voicekey-response","63","349023","0.0-4.59-0.59","4o69a5zbzclz0p7","{""user_agent"":""Mozilla/5.0 (Macintosh; Intel Mac OS X 10_14_4) AppleWebKit/537.36 (KHTML, like Gecko) Chrome/74.0.3729.169 Safari/537.36"",""on_chrome"":true,""on_mobile"":false,""language"":""en-US"",""screen_resolution"":[1440,900],""platform"":""MacIntel"",""timezone"":""Europe/Berlin""}","25","1206.1049999991433","","","1559657520893","21","","Konstanz","[]","Konstanz","true","true","2139.199999975972"
"","html-voicekey-response","64","351789","0.0-4.60-0.60","4o69a5zbzclz0p7","{""user_agent"":""Mozilla/5.0 (Macintosh; Intel Mac OS X 10_14_4) AppleWebKit/537.36 (KHTML, like Gecko) Chrome/74.0.3729.169 Safari/537.36"",""on_chrome"":true,""on_mobile"":false,""language"":""en-US"",""screen_resolution"":[1440,900],""platform"":""MacIntel"",""timezone"":""Europe/Berlin""}","25","1588.3000000120142","","","1559657523636","5","","Aachen","[]","Aachen","true","false","2163.135000009788"
"","html-voicekey-response","65","365025","0.0-4.61-0.61","4o69a5zbzclz0p7","{""user_agent"":""Mozilla/5.0 (Macintosh; Intel Mac OS X 10_14_4) AppleWebKit/537.36 (KHTML, like Gecko) Chrome/74.0.3729.169 Safari/537.36"",""on_chrome"":true,""on_mobile"":false,""language"":""en-US"",""screen_resolution"":[1440,900],""platform"":""MacIntel"",""timezone"":""Europe/Berlin""}","25","7805.424999978486","","","1559657526401","21","","","[]","Konstanz","false","false","9230.759999976726"
"","html-voicekey-response","66","368181","0.0-4.62-0.62","4o69a5zbzclz0p7","{""user_agent"":""Mozilla/5.0 (Macintosh; Intel Mac OS X 10_14_4) AppleWebKit/537.36 (KHTML, like Gecko) Chrome/74.0.3729.169 Safari/537.36"",""on_chrome"":true,""on_mobile"":false,""language"":""en-US"",""screen_resolution"":[1440,900],""platform"":""MacIntel"",""timezone"":""Europe/Berlin""}","25","1760.740000006836","","","1559657539638","16","","Schwangau","[]","Schwangau","true","false","2553.1250000058208"
"","html-voicekey-response","67","370950","0.0-4.63-0.63","4o69a5zbzclz0p7","{""user_agent"":""Mozilla/5.0 (Macintosh; Intel Mac OS X 10_14_4) AppleWebKit/537.36 (KHTML, like Gecko) Chrome/74.0.3729.169 Safari/537.36"",""on_chrome"":true,""on_mobile"":false,""language"":""en-US"",""screen_resolution"":[1440,900],""platform"":""MacIntel"",""timezone"":""Europe/Berlin""}","25","1504.6800000216813","","","1559657542794","22","","Bamberg","[]","Bamberg","true","true","2163.555000006454"
"","html-voicekey-response","68","373440","0.0-4.64-0.64","4o69a5zbzclz0p7","{""user_agent"":""Mozilla/5.0 (Macintosh; Intel Mac OS X 10_14_4) AppleWebKit/537.36 (KHTML, like Gecko) Chrome/74.0.3729.169 Safari/537.36"",""on_chrome"":true,""on_mobile"":false,""language"":""en-US"",""screen_resolution"":[1440,900],""platform"":""MacIntel"",""timezone"":""Europe/Berlin""}","25","844.435000015283","","","1559657545563","23","","Stuttgart","[]","Stuttgart","true","true","1886.915000010049"
"","html-voicekey-response","69","386189","0.0-4.65-0.65","4o69a5zbzclz0p7","{""user_agent"":""Mozilla/5.0 (Macintosh; Intel Mac OS X 10_14_4) AppleWebKit/537.36 (KHTML, like Gecko) Chrome/74.0.3729.169 Safari/537.36"",""on_chrome"":true,""on_mobile"":false,""language"":""en-US"",""screen_resolution"":[1440,900],""platform"":""MacIntel"",""timezone"":""Europe/Berlin""}","25","7885.775000011408","","","1559657548054","22","","","[]","Bamberg","false","false","8744.135000015376"
"","html-voicekey-response","70","397654","0.0-4.66-0.66","4o69a5zbzclz0p7","{""user_agent"":""Mozilla/5.0 (Macintosh; Intel Mac OS X 10_14_4) AppleWebKit/537.36 (KHTML, like Gecko) Chrome/74.0.3729.169 Safari/537.36"",""on_chrome"":true,""on_mobile"":false,""language"":""en-US"",""screen_resolution"":[1440,900],""platform"":""MacIntel"",""timezone"":""Europe/Berlin""}","25","6733.985000007879","","","1559657560802","23","","","[]","Stuttgart","false","false","7459.340000001248"
"","html-voicekey-response","71","400576","0.0-4.67-0.67","4o69a5zbzclz0p7","{""user_agent"":""Mozilla/5.0 (Macintosh; Intel Mac OS X 10_14_4) AppleWebKit/537.36 (KHTML, like Gecko) Chrome/74.0.3729.169 Safari/537.36"",""on_chrome"":true,""on_mobile"":false,""language"":""en-US"",""screen_resolution"":[1440,900],""platform"":""MacIntel"",""timezone"":""Europe/Berlin""}","25","1143.7650000242052","","","1559657572267","17","","Leipzig","[]","Leipzig","true","false","2319.1200000001118"
"","html-voicekey-response","72","413511","0.0-4.68-0.68","4o69a5zbzclz0p7","{""user_agent"":""Mozilla/5.0 (Macintosh; Intel Mac OS X 10_14_4) AppleWebKit/537.36 (KHTML, like Gecko) Chrome/74.0.3729.169 Safari/537.36"",""on_chrome"":true,""on_mobile"":false,""language"":""en-US"",""screen_resolution"":[1440,900],""platform"":""MacIntel"",""timezone"":""Europe/Berlin""}","25","8154.729999989131","","","1559657575189","18","","","[]","Forchheim","false","false","8930.749999999534"
"","html-voicekey-response","73","417104","0.0-4.69-0.69","4o69a5zbzclz0p7","{""user_agent"":""Mozilla/5.0 (Macintosh; Intel Mac OS X 10_14_4) AppleWebKit/537.36 (KHTML, like Gecko) Chrome/74.0.3729.169 Safari/537.36"",""on_chrome"":true,""on_mobile"":false,""language"":""en-US"",""screen_resolution"":[1440,900],""platform"":""MacIntel"",""timezone"":""Europe/Berlin""}","25","2198.480000000773","","","1559657588124","19","","Frankfurt","[]","Frankfurt","true","false","2990.684999997029"
"","html-voicekey-response","74","419871","0.0-4.70-0.70","4o69a5zbzclz0p7","{""user_agent"":""Mozilla/5.0 (Macintosh; Intel Mac OS X 10_14_4) AppleWebKit/537.36 (KHTML, like Gecko) Chrome/74.0.3729.169 Safari/537.36"",""on_chrome"":true,""on_mobile"":false,""language"":""en-US"",""screen_resolution"":[1440,900],""platform"":""MacIntel"",""timezone"":""Europe/Berlin""}","25","1538.6950000045822","","","1559657591717","20","","Hamburg ","[]","Hamburg ","true","false","2164.100000023609"
"","html-voicekey-response","75","426829","0.0-4.71-0.71","4o69a5zbzclz0p7","{""user_agent"":""Mozilla/5.0 (Macintosh; Intel Mac OS X 10_14_4) AppleWebKit/537.36 (KHTML, like Gecko) Chrome/74.0.3729.169 Safari/537.36"",""on_chrome"":true,""on_mobile"":false,""language"":""en-US"",""screen_resolution"":[1440,900],""platform"":""MacIntel"",""timezone"":""Europe/Berlin""}","25","2194.9449999754784","","","1559657594484","21","","","[]","Konstanz","false","false","2954.910000000382"
"","html-voicekey-response","76","429528","0.0-4.72-0.72","4o69a5zbzclz0p7","{""user_agent"":""Mozilla/5.0 (Macintosh; Intel Mac OS X 10_14_4) AppleWebKit/537.36 (KHTML, like Gecko) Chrome/74.0.3729.169 Safari/537.36"",""on_chrome"":true,""on_mobile"":false,""language"":""en-US"",""screen_resolution"":[1440,900],""platform"":""MacIntel"",""timezone"":""Europe/Berlin""}","25","1437.1199999967125","","","1559657601442","13","","Chemnitz","[]","Chemnitz","true","false","2095.180000003893"
"","html-voicekey-response","77","432368","0.0-4.73-0.73","4o69a5zbzclz0p7","{""user_agent"":""Mozilla/5.0 (Macintosh; Intel Mac OS X 10_14_4) AppleWebKit/537.36 (KHTML, like Gecko) Chrome/74.0.3729.169 Safari/537.36"",""on_chrome"":true,""on_mobile"":false,""language"":""en-US"",""screen_resolution"":[1440,900],""platform"":""MacIntel"",""timezone"":""Europe/Berlin""}","25","1621.7750000158326","","","1559657604141","5","","Aachen","[]","Aachen","true","false","2237.390000023879"
"","html-voicekey-response","78","454786","0.0-4.74-0.74","4o69a5zbzclz0p7","{""user_agent"":""Mozilla/5.0 (Macintosh; Intel Mac OS X 10_14_4) AppleWebKit/537.36 (KHTML, like Gecko) Chrome/74.0.3729.169 Safari/537.36"",""on_chrome"":true,""on_mobile"":false,""language"":""en-US"",""screen_resolution"":[1440,900],""platform"":""MacIntel"",""timezone"":""Europe/Berlin""}","25","17238.82000000761","","","1559657606981","22","","","[]","Bamberg","false","false","18414.134999999078"
"","html-voicekey-response","79","463051","0.0-4.75-0.75","4o69a5zbzclz0p7","{""user_agent"":""Mozilla/5.0 (Macintosh; Intel Mac OS X 10_14_4) AppleWebKit/537.36 (KHTML, like Gecko) Chrome/74.0.3729.169 Safari/537.36"",""on_chrome"":true,""on_mobile"":false,""language"":""en-US"",""screen_resolution"":[1440,900],""platform"":""MacIntel"",""timezone"":""Europe/Berlin""}","25","2636.754999993928","","","1559657629400","11","","","[]","Alfeld","false","false","4261.249999981374"
"","html-voicekey-response","80","467380","0.0-4.76-0.76","4o69a5zbzclz0p7","{""user_agent"":""Mozilla/5.0 (Macintosh; Intel Mac OS X 10_14_4) AppleWebKit/537.36 (KHTML, like Gecko) Chrome/74.0.3729.169 Safari/537.36"",""on_chrome"":true,""on_mobile"":false,""language"":""en-US"",""screen_resolution"":[1440,900],""platform"":""MacIntel"",""timezone"":""Europe/Berlin""}","25","3188.7450000011363","","","1559657637664","18","","Forchheim","[]","Forchheim","true","false","3725.6150000030175"
"","html-voicekey-response","81","470997","0.0-4.77-0.77","4o69a5zbzclz0p7","{""user_agent"":""Mozilla/5.0 (Macintosh; Intel Mac OS X 10_14_4) AppleWebKit/537.36 (KHTML, like Gecko) Chrome/74.0.3729.169 Safari/537.36"",""on_chrome"":true,""on_mobile"":false,""language"":""en-US"",""screen_resolution"":[1440,900],""platform"":""MacIntel"",""timezone"":""Europe/Berlin""}","25","2137.5299999870826","","","1559657641993","23","","Stuttgart","[]","Stuttgart","true","false","3013.4350000007544"
"","html-voicekey-response","82","478163","0.0-4.78-0.78","4o69a5zbzclz0p7","{""user_agent"":""Mozilla/5.0 (Macintosh; Intel Mac OS X 10_14_4) AppleWebKit/537.36 (KHTML, like Gecko) Chrome/74.0.3729.169 Safari/537.36"",""on_chrome"":true,""on_mobile"":false,""language"":""en-US"",""screen_resolution"":[1440,900],""platform"":""MacIntel"",""timezone"":""Europe/Berlin""}","25","1554.58000000529","","","1559657645610","21","","","[]","Konstanz","false","false","3163.624999986496"
"","html-voicekey-response","83","480921","0.0-4.79-0.79","4o69a5zbzclz0p7","{""user_agent"":""Mozilla/5.0 (Macintosh; Intel Mac OS X 10_14_4) AppleWebKit/537.36 (KHTML, like Gecko) Chrome/74.0.3729.169 Safari/537.36"",""on_chrome"":true,""on_mobile"":false,""language"":""en-US"",""screen_resolution"":[1440,900],""platform"":""MacIntel"",""timezone"":""Europe/Berlin""}","25","929.9050000061746","","","1559657652776","2","","Berlin","[]","Berlin","true","false","2155.189999990398"
"","html-voicekey-response","84","491040","0.0-4.80-0.80","4o69a5zbzclz0p7","{""user_agent"":""Mozilla/5.0 (Macintosh; Intel Mac OS X 10_14_4) AppleWebKit/537.36 (KHTML, like Gecko) Chrome/74.0.3729.169 Safari/537.36"",""on_chrome"":true,""on_mobile"":false,""language"":""en-US"",""screen_resolution"":[1440,900],""platform"":""MacIntel"",""timezone"":""Europe/Berlin""}","25","4655.319999999692","","","1559657655534","22","","","[]","Bamberg","false","false","6113.615000009304"
"","html-voicekey-response","85","499051","0.0-4.81-0.81","4o69a5zbzclz0p7","{""user_agent"":""Mozilla/5.0 (Macintosh; Intel Mac OS X 10_14_4) AppleWebKit/537.36 (KHTML, like Gecko) Chrome/74.0.3729.169 Safari/537.36"",""on_chrome"":true,""on_mobile"":false,""language"":""en-US"",""screen_resolution"":[1440,900],""platform"":""MacIntel"",""timezone"":""Europe/Berlin""}","25","1998.8499999834225","","","1559657665653","11","","","[]","Alfeld","false","false","4007.969999976922"
"","html-voicekey-response","86","507126","0.0-4.82-0.82","4o69a5zbzclz0p7","{""user_agent"":""Mozilla/5.0 (Macintosh; Intel Mac OS X 10_14_4) AppleWebKit/537.36 (KHTML, like Gecko) Chrome/74.0.3729.169 Safari/537.36"",""on_chrome"":true,""on_mobile"":false,""language"":""en-US"",""screen_resolution"":[1440,900],""platform"":""MacIntel"",""timezone"":""Europe/Berlin""}","25","3068.570000012033","","","1559657673666","18","","","[]","Forchheim","false","false","4069.6999999927357"
"","html-voicekey-response","87","520175","0.0-4.83-0.83","4o69a5zbzclz0p7","{""user_agent"":""Mozilla/5.0 (Macintosh; Intel Mac OS X 10_14_4) AppleWebKit/537.36 (KHTML, like Gecko) Chrome/74.0.3729.169 Safari/537.36"",""on_chrome"":true,""on_mobile"":false,""language"":""en-US"",""screen_resolution"":[1440,900],""platform"":""MacIntel"",""timezone"":""Europe/Berlin""}","25","8353.279999990109","","","1559657681739","21","","","[]","Konstanz","false","false","9045.610000001034"
"","html-voicekey-response","88","528458","0.0-4.84-0.84","4o69a5zbzclz0p7","{""user_agent"":""Mozilla/5.0 (Macintosh; Intel Mac OS X 10_14_4) AppleWebKit/537.36 (KHTML, like Gecko) Chrome/74.0.3729.169 Safari/537.36"",""on_chrome"":true,""on_mobile"":false,""language"":""en-US"",""screen_resolution"":[1440,900],""platform"":""MacIntel"",""timezone"":""Europe/Berlin""}","25","2587.7849999904633","","","1559657694789","22","","","[]","Bamberg","false","false","4279.029999976046"
"","html-voicekey-response","89","543924","0.0-4.85-0.85","4o69a5zbzclz0p7","{""user_agent"":""Mozilla/5.0 (Macintosh; Intel Mac OS X 10_14_4) AppleWebKit/537.36 (KHTML, like Gecko) Chrome/74.0.3729.169 Safari/537.36"",""on_chrome"":true,""on_mobile"":false,""language"":""en-US"",""screen_resolution"":[1440,900],""platform"":""MacIntel"",""timezone"":""Europe/Berlin""}","25","10704.715000008791","","","1559657703071","3","","","[]","Ingolstadt","false","false","11462.98999999999"
"","html-voicekey-response","90","552740","0.0-4.86-0.86","4o69a5zbzclz0p7","{""user_agent"":""Mozilla/5.0 (Macintosh; Intel Mac OS X 10_14_4) AppleWebKit/537.36 (KHTML, like Gecko) Chrome/74.0.3729.169 Safari/537.36"",""on_chrome"":true,""on_mobile"":false,""language"":""en-US"",""screen_resolution"":[1440,900],""platform"":""MacIntel"",""timezone"":""Europe/Berlin""}","25","3619.679999983264","","","1559657718538","21","","","[]","Konstanz","false","false","4811.7399999755435"
"","html-voicekey-response","91","557419","0.0-4.87-0.87","4o69a5zbzclz0p7","{""user_agent"":""Mozilla/5.0 (Macintosh; Intel Mac OS X 10_14_4) AppleWebKit/537.36 (KHTML, like Gecko) Chrome/74.0.3729.169 Safari/537.36"",""on_chrome"":true,""on_mobile"":false,""language"":""en-US"",""screen_resolution"":[1440,900],""platform"":""MacIntel"",""timezone"":""Europe/Berlin""}","25","Infinity","","","1559657727354","22","","Bamberg","[]","Bamberg","true","false","4075.2149999898393"
"","html-voicekey-response","92","562335","0.0-4.88-0.88","4o69a5zbzclz0p7","{""user_agent"":""Mozilla/5.0 (Macintosh; Intel Mac OS X 10_14_4) AppleWebKit/537.36 (KHTML, like Gecko) Chrome/74.0.3729.169 Safari/537.36"",""on_chrome"":true,""on_mobile"":false,""language"":""en-US"",""screen_resolution"":[1440,900],""platform"":""MacIntel"",""timezone"":""Europe/Berlin""}","25","3204.360000012303","","","1559657732033","11","","Alfeld","[]","Alfeld","true","false","4312.760000000708"
"","html-voicekey-response","93","564955","0.0-4.89-0.89","4o69a5zbzclz0p7","{""user_agent"":""Mozilla/5.0 (Macintosh; Intel Mac OS X 10_14_4) AppleWebKit/537.36 (KHTML, like Gecko) Chrome/74.0.3729.169 Safari/537.36"",""on_chrome"":true,""on_mobile"":false,""language"":""en-US"",""screen_resolution"":[1440,900],""platform"":""MacIntel"",""timezone"":""Europe/Berlin""}","25","1321.1950000057464","","","1559657736949","1","","Magdeburg","[]","Magdeburg","true","false","2013.200000015786"
"","html-voicekey-response","94","567877","0.0-4.90-0.90","4o69a5zbzclz0p7","{""user_agent"":""Mozilla/5.0 (Macintosh; Intel Mac OS X 10_14_4) AppleWebKit/537.36 (KHTML, like Gecko) Chrome/74.0.3729.169 Safari/537.36"",""on_chrome"":true,""on_mobile"":false,""language"":""en-US"",""screen_resolution"":[1440,900],""platform"":""MacIntel"",""timezone"":""Europe/Berlin""}","25","1375.2149999871385","","","1559657739569","4","","Würzburg","[]","Würzburg","true","false","2318.344999977853"
"","html-voicekey-response","95","586594","0.0-4.91-0.91","4o69a5zbzclz0p7","{""user_agent"":""Mozilla/5.0 (Macintosh; Intel Mac OS X 10_14_4) AppleWebKit/537.36 (KHTML, like Gecko) Chrome/74.0.3729.169 Safari/537.36"",""on_chrome"":true,""on_mobile"":false,""language"":""en-US"",""screen_resolution"":[1440,900],""platform"":""MacIntel"",""timezone"":""Europe/Berlin""}","25","13903.645000021997","","","1559657742491","8","","","[]","Gotha","false","false","14712.595000019064"
"","html-voicekey-response","96","594543","0.0-4.92-0.92","4o69a5zbzclz0p7","{""user_agent"":""Mozilla/5.0 (Macintosh; Intel Mac OS X 10_14_4) AppleWebKit/537.36 (KHTML, like Gecko) Chrome/74.0.3729.169 Safari/537.36"",""on_chrome"":true,""on_mobile"":false,""language"":""en-US"",""screen_resolution"":[1440,900],""platform"":""MacIntel"",""timezone"":""Europe/Berlin""}","25","3136.845000009844","","","1559657761208","18","","","[]","Forchheim","false","false","3944.6900000039022"
"","html-voicekey-response","97","608585","0.0-4.93-0.93","4o69a5zbzclz0p7","{""user_agent"":""Mozilla/5.0 (Macintosh; Intel Mac OS X 10_14_4) AppleWebKit/537.36 (KHTML, like Gecko) Chrome/74.0.3729.169 Safari/537.36"",""on_chrome"":true,""on_mobile"":false,""language"":""en-US"",""screen_resolution"":[1440,900],""platform"":""MacIntel"",""timezone"":""Europe/Berlin""}","25","9070.360000021383","","","1559657769157","21","","","[]","Konstanz","false","false","10037.52500002156"
"","html-voicekey-response","98","617615","0.0-4.94-0.94","4o69a5zbzclz0p7","{""user_agent"":""Mozilla/5.0 (Macintosh; Intel Mac OS X 10_14_4) AppleWebKit/537.36 (KHTML, like Gecko) Chrome/74.0.3729.169 Safari/537.36"",""on_chrome"":true,""on_mobile"":false,""language"":""en-US"",""screen_resolution"":[1440,900],""platform"":""MacIntel"",""timezone"":""Europe/Berlin""}","25","1953.329999998305","","","1559657783199","22","","","[]","Bamberg","false","false","5025.725000014063"
"","html-voicekey-response","99","622064","0.0-4.95-0.95","4o69a5zbzclz0p7","{""user_agent"":""Mozilla/5.0 (Macintosh; Intel Mac OS X 10_14_4) AppleWebKit/537.36 (KHTML, like Gecko) Chrome/74.0.3729.169 Safari/537.36"",""on_chrome"":true,""on_mobile"":false,""language"":""en-US"",""screen_resolution"":[1440,900],""platform"":""MacIntel"",""timezone"":""Europe/Berlin""}","25","1820.2400000098628","","","1559657792229","7","","Erfurt","[]","Erfurt","true","false","3845.0700000103097"
"","html-voicekey-response","100","624522","0.0-4.96-0.96","4o69a5zbzclz0p7","{""user_agent"":""Mozilla/5.0 (Macintosh; Intel Mac OS X 10_14_4) AppleWebKit/537.36 (KHTML, like Gecko) Chrome/74.0.3729.169 Safari/537.36"",""on_chrome"":true,""on_mobile"":false,""language"":""en-US"",""screen_resolution"":[1440,900],""platform"":""MacIntel"",""timezone"":""Europe/Berlin""}","25","1129.4900000010152","","","1559657796678","6","","Dresden","[]","Dresden","true","false","1854.3099999951664"
"","html-voicekey-response","101","627556","0.0-4.97-0.97","4o69a5zbzclz0p7","{""user_agent"":""Mozilla/5.0 (Macintosh; Intel Mac OS X 10_14_4) AppleWebKit/537.36 (KHTML, like Gecko) Chrome/74.0.3729.169 Safari/537.36"",""on_chrome"":true,""on_mobile"":false,""language"":""en-US"",""screen_resolution"":[1440,900],""platform"":""MacIntel"",""timezone"":""Europe/Berlin""}","25","1553.7550000097604","","","1559657799137","10","","Heidelberg","[]","Heidelberg","true","false","2429.724999994505"
"","html-voicekey-response","102","630306","0.0-4.98-0.98","4o69a5zbzclz0p7","{""user_agent"":""Mozilla/5.0 (Macintosh; Intel Mac OS X 10_14_4) AppleWebKit/537.36 (KHTML, like Gecko) Chrome/74.0.3729.169 Safari/537.36"",""on_chrome"":true,""on_mobile"":false,""language"":""en-US"",""screen_resolution"":[1440,900],""platform"":""MacIntel"",""timezone"":""Europe/Berlin""}","25","1368.9200000170154","","","1559657802171","9","","München","[]","München","true","false","2145.0350000231992"
"","html-voicekey-response","103","640047","0.0-4.99-0.99","4o69a5zbzclz0p7","{""user_agent"":""Mozilla/5.0 (Macintosh; Intel Mac OS X 10_14_4) AppleWebKit/537.36 (KHTML, like Gecko) Chrome/74.0.3729.169 Safari/537.36"",""on_chrome"":true,""on_mobile"":false,""language"":""en-US"",""screen_resolution"":[1440,900],""platform"":""MacIntel"",""timezone"":""Europe/Berlin""}","25","4844.0050000006795","","","1559657804921","3","","","[]","Ingolstadt","false","false","5736.000000004424"
"","html-voicekey-response","104","642337","0.0-4.100-0.100","4o69a5zbzclz0p7","{""user_agent"":""Mozilla/5.0 (Macintosh; Intel Mac OS X 10_14_4) AppleWebKit/537.36 (KHTML, like Gecko) Chrome/74.0.3729.169 Safari/537.36"",""on_chrome"":true,""on_mobile"":false,""language"":""en-US"",""screen_resolution"":[1440,900],""platform"":""MacIntel"",""timezone"":""Europe/Berlin""}","25","803.3699999885633","","","1559657814662","22","","Bamberg","[]","Bamberg","true","false","1685.0550000090152"
"","html-voicekey-response","105","645854","0.0-4.101-0.101","4o69a5zbzclz0p7","{""user_agent"":""Mozilla/5.0 (Macintosh; Intel Mac OS X 10_14_4) AppleWebKit/537.36 (KHTML, like Gecko) Chrome/74.0.3729.169 Safari/537.36"",""on_chrome"":true,""on_mobile"":false,""language"":""en-US"",""screen_resolution"":[1440,900],""platform"":""MacIntel"",""timezone"":""Europe/Berlin""}","25","2321.3349999949337","","","1559657816951","11","","Alfeld","[]","Alfeld","true","false","2913.650000002235"
"","html-voicekey-response","106","649055","0.0-4.102-0.102","4o69a5zbzclz0p7","{""user_agent"":""Mozilla/5.0 (Macintosh; Intel Mac OS X 10_14_4) AppleWebKit/537.36 (KHTML, like Gecko) Chrome/74.0.3729.169 Safari/537.36"",""on_chrome"":true,""on_mobile"":false,""language"":""en-US"",""screen_resolution"":[1440,900],""platform"":""MacIntel"",""timezone"":""Europe/Berlin""}","25","1336.4800000070595","","","1559657820469","12","","Dessau","[]","Dessau","true","false","2595.899999985704"
"","html-voicekey-response","107","655305","0.0-4.103-0.103","4o69a5zbzclz0p7","{""user_agent"":""Mozilla/5.0 (Macintosh; Intel Mac OS X 10_14_4) AppleWebKit/537.36 (KHTML, like Gecko) Chrome/74.0.3729.169 Safari/537.36"",""on_chrome"":true,""on_mobile"":false,""language"":""en-US"",""screen_resolution"":[1440,900],""platform"":""MacIntel"",""timezone"":""Europe/Berlin""}","25","1520.340000026254","","","1559657823669","21","","","[]","Konstanz","false","false","2245.0600000156555"
"","html-voicekey-response","108","659199","0.0-4.104-0.104","4o69a5zbzclz0p7","{""user_agent"":""Mozilla/5.0 (Macintosh; Intel Mac OS X 10_14_4) AppleWebKit/537.36 (KHTML, like Gecko) Chrome/74.0.3729.169 Safari/537.36"",""on_chrome"":true,""on_mobile"":false,""language"":""en-US"",""screen_resolution"":[1440,900],""platform"":""MacIntel"",""timezone"":""Europe/Berlin""}","25","1697.4100000023377","","","1559657829919","5","","Aachen","[]","Aachen","true","false","3289.839999983087"
"","html-voicekey-response","109","667035","0.0-4.105-0.105","4o69a5zbzclz0p7","{""user_agent"":""Mozilla/5.0 (Macintosh; Intel Mac OS X 10_14_4) AppleWebKit/537.36 (KHTML, like Gecko) Chrome/74.0.3729.169 Safari/537.36"",""on_chrome"":true,""on_mobile"":false,""language"":""en-US"",""screen_resolution"":[1440,900],""platform"":""MacIntel"",""timezone"":""Europe/Berlin""}","25","2902.600000010198","","","1559657833813","15","","","[]","Nürnberg","false","false","3829.4349999923725"
"","html-voicekey-response","110","680043","0.0-4.106-0.106","4o69a5zbzclz0p7","{""user_agent"":""Mozilla/5.0 (Macintosh; Intel Mac OS X 10_14_4) AppleWebKit/537.36 (KHTML, like Gecko) Chrome/74.0.3729.169 Safari/537.36"",""on_chrome"":true,""on_mobile"":false,""language"":""en-US"",""screen_resolution"":[1440,900],""platform"":""MacIntel"",""timezone"":""Europe/Berlin""}","25","8191.055000011902","","","1559657841650","21","","","[]","Konstanz","false","false","9000.230000005104"
"","html-voicekey-response","111","684632","0.0-4.107-0.107","4o69a5zbzclz0p7","{""user_agent"":""Mozilla/5.0 (Macintosh; Intel Mac OS X 10_14_4) AppleWebKit/537.36 (KHTML, like Gecko) Chrome/74.0.3729.169 Safari/537.36"",""on_chrome"":true,""on_mobile"":false,""language"":""en-US"",""screen_resolution"":[1440,900],""platform"":""MacIntel"",""timezone"":""Europe/Berlin""}","25","3191.980000012182","","","1559657854658","8","","Gotha","[]","Gotha","true","false","3984.4349999912083"
"","html-voicekey-response","112","691315","0.0-4.108-0.108","4o69a5zbzclz0p7","{""user_agent"":""Mozilla/5.0 (Macintosh; Intel Mac OS X 10_14_4) AppleWebKit/537.36 (KHTML, like Gecko) Chrome/74.0.3729.169 Safari/537.36"",""on_chrome"":true,""on_mobile"":false,""language"":""en-US"",""screen_resolution"":[1440,900],""platform"":""MacIntel"",""timezone"":""Europe/Berlin""}","25","5436.014999993704","","","1559657859247","21","","Konstanz","[]","Konstanz","true","false","6077.984999981709"
"","html-voicekey-response","113","694495","0.0-4.109-0.109","4o69a5zbzclz0p7","{""user_agent"":""Mozilla/5.0 (Macintosh; Intel Mac OS X 10_14_4) AppleWebKit/537.36 (KHTML, like Gecko) Chrome/74.0.3729.169 Safari/537.36"",""on_chrome"":true,""on_mobile"":false,""language"":""en-US"",""screen_resolution"":[1440,900],""platform"":""MacIntel"",""timezone"":""Europe/Berlin""}","25","2048.445000002021","","","1559657865929","22","","Bamberg","[]","Bamberg","true","false","2575.375000014901"
"","html-voicekey-response","114","705044","0.0-4.110-0.110","4o69a5zbzclz0p7","{""user_agent"":""Mozilla/5.0 (Macintosh; Intel Mac OS X 10_14_4) AppleWebKit/537.36 (KHTML, like Gecko) Chrome/74.0.3729.169 Safari/537.36"",""on_chrome"":true,""on_mobile"":false,""language"":""en-US"",""screen_resolution"":[1440,900],""platform"":""MacIntel"",""timezone"":""Europe/Berlin""}","25","5332.869999992754","","","1559657869113","18","","","[]","Forchheim","false","false","6541.609999985667"
"","html-voicekey-response","115","713074","0.0-4.111-0.111","4o69a5zbzclz0p7","{""user_agent"":""Mozilla/5.0 (Macintosh; Intel Mac OS X 10_14_4) AppleWebKit/537.36 (KHTML, like Gecko) Chrome/74.0.3729.169 Safari/537.36"",""on_chrome"":true,""on_mobile"":false,""language"":""en-US"",""screen_resolution"":[1440,900],""platform"":""MacIntel"",""timezone"":""Europe/Berlin""}","25","5180.639999985788","","","1559657879660","14","","Potsdam","[]","Potsdam","true","false","7423.5549999866635"
"","html-voicekey-response","116","728716","0.0-4.112-0.112","4o69a5zbzclz0p7","{""user_agent"":""Mozilla/5.0 (Macintosh; Intel Mac OS X 10_14_4) AppleWebKit/537.36 (KHTML, like Gecko) Chrome/74.0.3729.169 Safari/537.36"",""on_chrome"":true,""on_mobile"":false,""language"":""en-US"",""screen_resolution"":[1440,900],""platform"":""MacIntel"",""timezone"":""Europe/Berlin""}","25","10091.185000006435","","","1559657887691","21","","","[]","Konstanz","false","false","11632.834999996703"
"","html-voicekey-response","117","736806","0.0-4.113-0.113","4o69a5zbzclz0p7","{""user_agent"":""Mozilla/5.0 (Macintosh; Intel Mac OS X 10_14_4) AppleWebKit/537.36 (KHTML, like Gecko) Chrome/74.0.3729.169 Safari/537.36"",""on_chrome"":true,""on_mobile"":false,""language"":""en-US"",""screen_resolution"":[1440,900],""platform"":""MacIntel"",""timezone"":""Europe/Berlin""}","25","2425.4250000029338","","","1559657903332","18","","","[]","Forchheim","false","false","4083.619999990333"
"","html-voicekey-response","118","744835","0.0-4.114-0.114","4o69a5zbzclz0p7","{""user_agent"":""Mozilla/5.0 (Macintosh; Intel Mac OS X 10_14_4) AppleWebKit/537.36 (KHTML, like Gecko) Chrome/74.0.3729.169 Safari/537.36"",""on_chrome"":true,""on_mobile"":false,""language"":""en-US"",""screen_resolution"":[1440,900],""platform"":""MacIntel"",""timezone"":""Europe/Berlin""}","25","Infinity","","","1559657911422","16","","Schwangau","[]","Schwangau","true","false","7422.800000000279"
"","html-voicekey-response","119","754003","0.0-4.115-0.115","4o69a5zbzclz0p7","{""user_agent"":""Mozilla/5.0 (Macintosh; Intel Mac OS X 10_14_4) AppleWebKit/537.36 (KHTML, like Gecko) Chrome/74.0.3729.169 Safari/537.36"",""on_chrome"":true,""on_mobile"":false,""language"":""en-US"",""screen_resolution"":[1440,900],""platform"":""MacIntel"",""timezone"":""Europe/Berlin""}","25","3884.7350000085776","","","1559657919451","21","","","[]","Konstanz","false","false","5160.319999995409"
"","html-voicekey-response","120","757875","0.0-4.116-0.116","4o69a5zbzclz0p7","{""user_agent"":""Mozilla/5.0 (Macintosh; Intel Mac OS X 10_14_4) AppleWebKit/537.36 (KHTML, like Gecko) Chrome/74.0.3729.169 Safari/537.36"",""on_chrome"":true,""on_mobile"":false,""language"":""en-US"",""screen_resolution"":[1440,900],""platform"":""MacIntel"",""timezone"":""Europe/Berlin""}","25","2740.9650000134484","","","1559657928619","22","","Bamberg","[]","Bamberg","true","false","3266.269999992801"
"","html-voicekey-response","121","773476","0.0-4.117-0.117","4o69a5zbzclz0p7","{""user_agent"":""Mozilla/5.0 (Macintosh; Intel Mac OS X 10_14_4) AppleWebKit/537.36 (KHTML, like Gecko) Chrome/74.0.3729.169 Safari/537.36"",""on_chrome"":true,""on_mobile"":false,""language"":""en-US"",""screen_resolution"":[1440,900],""platform"":""MacIntel"",""timezone"":""Europe/Berlin""}","25","10353.089999998547","","","1559657932490","21","","","[]","Konstanz","false","false","11595.304999995278"
"","html-voicekey-response","122","775992","0.0-4.118-0.118","4o69a5zbzclz0p7","{""user_agent"":""Mozilla/5.0 (Macintosh; Intel Mac OS X 10_14_4) AppleWebKit/537.36 (KHTML, like Gecko) Chrome/74.0.3729.169 Safari/537.36"",""on_chrome"":true,""on_mobile"":false,""language"":""en-US"",""screen_resolution"":[1440,900],""platform"":""MacIntel"",""timezone"":""Europe/Berlin""}","25","100","","","1559657948092","18","","Forchheim","[]","Forchheim","true","false","1909.6150000113994"
"","html-voicekey-response","123","779509","0.0-4.119-0.119","4o69a5zbzclz0p7","{""user_agent"":""Mozilla/5.0 (Macintosh; Intel Mac OS X 10_14_4) AppleWebKit/537.36 (KHTML, like Gecko) Chrome/74.0.3729.169 Safari/537.36"",""on_chrome"":true,""on_mobile"":false,""language"":""en-US"",""screen_resolution"":[1440,900],""platform"":""MacIntel"",""timezone"":""Europe/Berlin""}","25","2136.029999974044","","","1559657950608","21","","Konstanz","[]","Konstanz","true","false","2910.924999974668"
"","html-voicekey-response","124","788100","0.0-4.120-0.120","4o69a5zbzclz0p7","{""user_agent"":""Mozilla/5.0 (Macintosh; Intel Mac OS X 10_14_4) AppleWebKit/537.36 (KHTML, like Gecko) Chrome/74.0.3729.169 Safari/537.36"",""on_chrome"":true,""on_mobile"":false,""language"":""en-US"",""screen_resolution"":[1440,900],""platform"":""MacIntel"",""timezone"":""Europe/Berlin""}","25","3659.939999992121","","","1559657954125","11","","","[]","Alfeld","false","false","4585.159999987809"
"","html-voicekey-response","125","797735","0.0-4.121-0.121","4o69a5zbzclz0p7","{""user_agent"":""Mozilla/5.0 (Macintosh; Intel Mac OS X 10_14_4) AppleWebKit/537.36 (KHTML, like Gecko) Chrome/74.0.3729.169 Safari/537.36"",""on_chrome"":true,""on_mobile"":false,""language"":""en-US"",""screen_resolution"":[1440,900],""platform"":""MacIntel"",""timezone"":""Europe/Berlin""}","25","2968.864999982389","","","1559657962717","21","","","[]","Konstanz","false","false","5626.939999987371"
"","html-voicekey-response","126","800179","0.0-4.122-0.122","4o69a5zbzclz0p7","{""user_agent"":""Mozilla/5.0 (Macintosh; Intel Mac OS X 10_14_4) AppleWebKit/537.36 (KHTML, like Gecko) Chrome/74.0.3729.169 Safari/537.36"",""on_chrome"":true,""on_mobile"":false,""language"":""en-US"",""screen_resolution"":[1440,900],""platform"":""MacIntel"",""timezone"":""Europe/Berlin""}","25","1296.1049999956508","","","1559657972351","17","","Leipzig","[]","Leipzig","true","false","1838.1250000093132"
"","html-voicekey-response","127","808413","0.0-4.123-0.123","4o69a5zbzclz0p7","{""user_agent"":""Mozilla/5.0 (Macintosh; Intel Mac OS X 10_14_4) AppleWebKit/537.36 (KHTML, like Gecko) Chrome/74.0.3729.169 Safari/537.36"",""on_chrome"":true,""on_mobile"":false,""language"":""en-US"",""screen_resolution"":[1440,900],""platform"":""MacIntel"",""timezone"":""Europe/Berlin""}","25","2754.849999977369","","","1559657974792","21","","","[]","Konstanz","false","false","4230.139999999665"
"","html-voicekey-response","128","810803","0.0-4.124-0.124","4o69a5zbzclz0p7","{""user_agent"":""Mozilla/5.0 (Macintosh; Intel Mac OS X 10_14_4) AppleWebKit/537.36 (KHTML, like Gecko) Chrome/74.0.3729.169 Safari/537.36"",""on_chrome"":true,""on_mobile"":false,""language"":""en-US"",""screen_resolution"":[1440,900],""platform"":""MacIntel"",""timezone"":""Europe/Berlin""}","25","1176.0600000069012","","","1559657983029","22","","Bamberg","[]","Bamberg","true","false","1784.7900000051595"
"","html-voicekey-response","129","813421","0.0-4.125-0.125","4o69a5zbzclz0p7","{""user_agent"":""Mozilla/5.0 (Macintosh; Intel Mac OS X 10_14_4) AppleWebKit/537.36 (KHTML, like Gecko) Chrome/74.0.3729.169 Safari/537.36"",""on_chrome"":true,""on_mobile"":false,""language"":""en-US"",""screen_resolution"":[1440,900],""platform"":""MacIntel"",""timezone"":""Europe/Berlin""}","25","1202.2300000042655","","","1559657985420","15","","Nürnberg","[]","Nürnberg","true","false","2011.2549999903422"
"","html-voicekey-response","130","817145","0.0-4.126-0.126","4o69a5zbzclz0p7","{""user_agent"":""Mozilla/5.0 (Macintosh; Intel Mac OS X 10_14_4) AppleWebKit/537.36 (KHTML, like Gecko) Chrome/74.0.3729.169 Safari/537.36"",""on_chrome"":true,""on_mobile"":false,""language"":""en-US"",""screen_resolution"":[1440,900],""platform"":""MacIntel"",""timezone"":""Europe/Berlin""}","25","2383.7600000059233","","","1559657988038","11","","Alfeld","[]","Alfeld","true","false","3117.6400000113063"
"","html-voicekey-response","131","819979","0.0-4.127-0.127","4o69a5zbzclz0p7","{""user_agent"":""Mozilla/5.0 (Macintosh; Intel Mac OS X 10_14_4) AppleWebKit/537.36 (KHTML, like Gecko) Chrome/74.0.3729.169 Safari/537.36"",""on_chrome"":true,""on_mobile"":false,""language"":""en-US"",""screen_resolution"":[1440,900],""platform"":""MacIntel"",""timezone"":""Europe/Berlin""}","25","1484.9300000149292","","","1559657991762","21","","Konstanz","[]","Konstanz","true","false","2227.600000012899"
"","html-voicekey-response","132","823063","0.0-4.128-0.128","4o69a5zbzclz0p7","{""user_agent"":""Mozilla/5.0 (Macintosh; Intel Mac OS X 10_14_4) AppleWebKit/537.36 (KHTML, like Gecko) Chrome/74.0.3729.169 Safari/537.36"",""on_chrome"":true,""on_mobile"":false,""language"":""en-US"",""screen_resolution"":[1440,900],""platform"":""MacIntel"",""timezone"":""Europe/Berlin""}","25","1767.10000000624","","","1559657994596","19","","Frankfurt","[]","Frankfurt","true","false","2476.4950000098906"
"","html-voicekey-response","133","832580","0.0-4.129-0.129","4o69a5zbzclz0p7","{""user_agent"":""Mozilla/5.0 (Macintosh; Intel Mac OS X 10_14_4) AppleWebKit/537.36 (KHTML, like Gecko) Chrome/74.0.3729.169 Safari/537.36"",""on_chrome"":true,""on_mobile"":false,""language"":""en-US"",""screen_resolution"":[1440,900],""platform"":""MacIntel"",""timezone"":""Europe/Berlin""}","25","4499.50499999416","","","1559657997680","3","","","[]","Ingolstadt","false","false","5508.224999997765"
"","html-voicekey-response","134","842091","0.0-4.130-0.130","4o69a5zbzclz0p7","{""user_agent"":""Mozilla/5.0 (Macintosh; Intel Mac OS X 10_14_4) AppleWebKit/537.36 (KHTML, like Gecko) Chrome/74.0.3729.169 Safari/537.36"",""on_chrome"":true,""on_mobile"":false,""language"":""en-US"",""screen_resolution"":[1440,900],""platform"":""MacIntel"",""timezone"":""Europe/Berlin""}","25","2379.2150000025053","","","1559658007196","18","","","[]","Forchheim","false","false","5504.205000004731"
