"value","trial_type","trial_index","time_elapsed","internal_node_id","subject","browser_info","participant_number","rt","responses","view_history","presentation_start_time","id","text","response","keypresses","answer","correct","study","experimenter_rt"
"","call-function","0","4","0.0-0.0","5mzqhtpbjr5upge","{""user_agent"":""Mozilla/5.0 (Macintosh; Intel Mac OS X 10_14_4) AppleWebKit/537.36 (KHTML, like Gecko) Chrome/74.0.3729.169 Safari/537.36"",""on_chrome"":true,""on_mobile"":false,""language"":""en-US"",""screen_resolution"":[1440,900],""platform"":""MacIntel"",""timezone"":""Europe/Berlin""}","26","","","","","","","","","","","",""
"","survey-text","1","3286","0.0-1.0","5mzqhtpbjr5upge","{""user_agent"":""Mozilla/5.0 (Macintosh; Intel Mac OS X 10_14_4) AppleWebKit/537.36 (KHTML, like Gecko) Chrome/74.0.3729.169 Safari/537.36"",""on_chrome"":true,""on_mobile"":false,""language"":""en-US"",""screen_resolution"":[1440,900],""platform"":""MacIntel"",""timezone"":""Europe/Berlin""}","26","3280","{""Q0"":""26""}","","","","","","","","","",""
"","instructions","2","4432","0.0-2.0","5mzqhtpbjr5upge","{""user_agent"":""Mozilla/5.0 (Macintosh; Intel Mac OS X 10_14_4) AppleWebKit/537.36 (KHTML, like Gecko) Chrome/74.0.3729.169 Safari/537.36"",""on_chrome"":true,""on_mobile"":false,""language"":""en-US"",""screen_resolution"":[1440,900],""platform"":""MacIntel"",""timezone"":""Europe/Berlin""}","26","1145","","[{""page_index"":0,""viewing_time"":1145}]","","","","","","","","",""
"","call-function","3","4433","0.0-3.0","5mzqhtpbjr5upge","{""user_agent"":""Mozilla/5.0 (Macintosh; Intel Mac OS X 10_14_4) AppleWebKit/537.36 (KHTML, like Gecko) Chrome/74.0.3729.169 Safari/537.36"",""on_chrome"":true,""on_mobile"":false,""language"":""en-US"",""screen_resolution"":[1440,900],""platform"":""MacIntel"",""timezone"":""Europe/Berlin""}","26","","","","","","","","","","","",""
"","html-voicekey-response","4","11549","0.0-4.0-0.0","5mzqhtpbjr5upge","{""user_agent"":""Mozilla/5.0 (Macintosh; Intel Mac OS X 10_14_4) AppleWebKit/537.36 (KHTML, like Gecko) Chrome/74.0.3729.169 Safari/537.36"",""on_chrome"":true,""on_mobile"":false,""language"":""en-US"",""screen_resolution"":[1440,900],""platform"":""MacIntel"",""timezone"":""Europe/Berlin""}","26","4653.949999987008","","","1559722295293","1","","Magdeburg","[]","Magdeburg","true","true","6511.115000001155"
"","html-voicekey-response","5","16698","0.0-4.1-0.1","5mzqhtpbjr5upge","{""user_agent"":""Mozilla/5.0 (Macintosh; Intel Mac OS X 10_14_4) AppleWebKit/537.36 (KHTML, like Gecko) Chrome/74.0.3729.169 Safari/537.36"",""on_chrome"":true,""on_mobile"":false,""language"":""en-US"",""screen_resolution"":[1440,900],""platform"":""MacIntel"",""timezone"":""Europe/Berlin""}","26","3951.9400000079536","","","1559722302410","1","","Magdeburg","[]","Magdeburg","true","false","4544.315000006463"
"","html-voicekey-response","6","19420","0.0-4.2-0.2","5mzqhtpbjr5upge","{""user_agent"":""Mozilla/5.0 (Macintosh; Intel Mac OS X 10_14_4) AppleWebKit/537.36 (KHTML, like Gecko) Chrome/74.0.3729.169 Safari/537.36"",""on_chrome"":true,""on_mobile"":false,""language"":""en-US"",""screen_resolution"":[1440,900],""platform"":""MacIntel"",""timezone"":""Europe/Berlin""}","26","1577.9099999725354","","","1559722307557","2","","Berlin","[]","Berlin","true","true","2119.879999983823"
"","html-voicekey-response","7","21753","0.0-4.3-0.3","5mzqhtpbjr5upge","{""user_agent"":""Mozilla/5.0 (Macintosh; Intel Mac OS X 10_14_4) AppleWebKit/537.36 (KHTML, like Gecko) Chrome/74.0.3729.169 Safari/537.36"",""on_chrome"":true,""on_mobile"":false,""language"":""en-US"",""screen_resolution"":[1440,900],""platform"":""MacIntel"",""timezone"":""Europe/Berlin""}","26","1055.914999984298","","","1559722310279","2","","Berlin","[]","Berlin","true","false","1730.8649999904446"
"","html-voicekey-response","8","25620","0.0-4.4-0.4","5mzqhtpbjr5upge","{""user_agent"":""Mozilla/5.0 (Macintosh; Intel Mac OS X 10_14_4) AppleWebKit/537.36 (KHTML, like Gecko) Chrome/74.0.3729.169 Safari/537.36"",""on_chrome"":true,""on_mobile"":false,""language"":""en-US"",""screen_resolution"":[1440,900],""platform"":""MacIntel"",""timezone"":""Europe/Berlin""}","26","2239.349999997858","","","1559722312612","3","","Ingolstadt","[]","Ingolstadt","true","true","3264.9600000004284"
"","html-voicekey-response","9","29459","0.0-4.5-0.5","5mzqhtpbjr5upge","{""user_agent"":""Mozilla/5.0 (Macintosh; Intel Mac OS X 10_14_4) AppleWebKit/537.36 (KHTML, like Gecko) Chrome/74.0.3729.169 Safari/537.36"",""on_chrome"":true,""on_mobile"":false,""language"":""en-US"",""screen_resolution"":[1440,900],""platform"":""MacIntel"",""timezone"":""Europe/Berlin""}","26","2372.394999992894","","","1559722316480","4","","Würzburg","[]","Würzburg","true","true","3236.369999998715"
"","html-voicekey-response","10","32058","0.0-4.6-0.6","5mzqhtpbjr5upge","{""user_agent"":""Mozilla/5.0 (Macintosh; Intel Mac OS X 10_14_4) AppleWebKit/537.36 (KHTML, like Gecko) Chrome/74.0.3729.169 Safari/537.36"",""on_chrome"":true,""on_mobile"":false,""language"":""en-US"",""screen_resolution"":[1440,900],""platform"":""MacIntel"",""timezone"":""Europe/Berlin""}","26","1289.8300000031945","","","1559722320318","3","","Ingolstadt","[]","Ingolstadt","true","false","1997.1150000055786"
"","html-voicekey-response","11","34692","0.0-4.7-0.7","5mzqhtpbjr5upge","{""user_agent"":""Mozilla/5.0 (Macintosh; Intel Mac OS X 10_14_4) AppleWebKit/537.36 (KHTML, like Gecko) Chrome/74.0.3729.169 Safari/537.36"",""on_chrome"":true,""on_mobile"":false,""language"":""en-US"",""screen_resolution"":[1440,900],""platform"":""MacIntel"",""timezone"":""Europe/Berlin""}","26","1106.800000017602","","","1559722322917","4","","Würzburg","[]","Würzburg","true","false","2031.7650000215508"
"","html-voicekey-response","12","37528","0.0-4.8-0.8","5mzqhtpbjr5upge","{""user_agent"":""Mozilla/5.0 (Macintosh; Intel Mac OS X 10_14_4) AppleWebKit/537.36 (KHTML, like Gecko) Chrome/74.0.3729.169 Safari/537.36"",""on_chrome"":true,""on_mobile"":false,""language"":""en-US"",""screen_resolution"":[1440,900],""platform"":""MacIntel"",""timezone"":""Europe/Berlin""}","26","1406.4900000028779","","","1559722325551","5","","Aachen","[]","Aachen","true","true","2231.63000002387"
"","html-voicekey-response","13","40215","0.0-4.9-0.9","5mzqhtpbjr5upge","{""user_agent"":""Mozilla/5.0 (Macintosh; Intel Mac OS X 10_14_4) AppleWebKit/537.36 (KHTML, like Gecko) Chrome/74.0.3729.169 Safari/537.36"",""on_chrome"":true,""on_mobile"":false,""language"":""en-US"",""screen_resolution"":[1440,900],""platform"":""MacIntel"",""timezone"":""Europe/Berlin""}","26","1310.2900000029244","","","1559722328387","6","","Dresden","[]","Dresden","true","true","2085.075000009965"
"","html-voicekey-response","14","47716","0.0-4.10-0.10","5mzqhtpbjr5upge","{""user_agent"":""Mozilla/5.0 (Macintosh; Intel Mac OS X 10_14_4) AppleWebKit/537.36 (KHTML, like Gecko) Chrome/74.0.3729.169 Safari/537.36"",""on_chrome"":true,""on_mobile"":false,""language"":""en-US"",""screen_resolution"":[1440,900],""platform"":""MacIntel"",""timezone"":""Europe/Berlin""}","26","2539.240000021737","","","1559722331074","5","","","[]","Aachen","false","false","3498.2900000177324"
"","html-voicekey-response","15","50373","0.0-4.11-0.11","5mzqhtpbjr5upge","{""user_agent"":""Mozilla/5.0 (Macintosh; Intel Mac OS X 10_14_4) AppleWebKit/537.36 (KHTML, like Gecko) Chrome/74.0.3729.169 Safari/537.36"",""on_chrome"":true,""on_mobile"":false,""language"":""en-US"",""screen_resolution"":[1440,900],""platform"":""MacIntel"",""timezone"":""Europe/Berlin""}","26","1355.2399999842514","","","1559722338575","6","","Dresden","[]","Dresden","true","false","2054.634999978589"
"","html-voicekey-response","16","53439","0.0-4.12-0.12","5mzqhtpbjr5upge","{""user_agent"":""Mozilla/5.0 (Macintosh; Intel Mac OS X 10_14_4) AppleWebKit/537.36 (KHTML, like Gecko) Chrome/74.0.3729.169 Safari/537.36"",""on_chrome"":true,""on_mobile"":false,""language"":""en-US"",""screen_resolution"":[1440,900],""platform"":""MacIntel"",""timezone"":""Europe/Berlin""}","26","1589.1450000143145","","","1559722341232","7","","Erfurt","[]","Erfurt","true","true","2464.345000014873"
"","html-voicekey-response","17","56673","0.0-4.13-0.13","5mzqhtpbjr5upge","{""user_agent"":""Mozilla/5.0 (Macintosh; Intel Mac OS X 10_14_4) AppleWebKit/537.36 (KHTML, like Gecko) Chrome/74.0.3729.169 Safari/537.36"",""on_chrome"":true,""on_mobile"":false,""language"":""en-US"",""screen_resolution"":[1440,900],""platform"":""MacIntel"",""timezone"":""Europe/Berlin""}","26","1806.4349999857136","","","1559722344298","8","","Gotha","[]","Gotha","true","true","2631.664999993518"
"","html-voicekey-response","18","60274","0.0-4.14-0.14","5mzqhtpbjr5upge","{""user_agent"":""Mozilla/5.0 (Macintosh; Intel Mac OS X 10_14_4) AppleWebKit/537.36 (KHTML, like Gecko) Chrome/74.0.3729.169 Safari/537.36"",""on_chrome"":true,""on_mobile"":false,""language"":""en-US"",""screen_resolution"":[1440,900],""platform"":""MacIntel"",""timezone"":""Europe/Berlin""}","26","2104.6899999872317","","","1559722347532","7","","Erfurt","[]","Erfurt","true","false","2997.2899999993388"
"","html-voicekey-response","19","69930","0.0-4.15-0.15","5mzqhtpbjr5upge","{""user_agent"":""Mozilla/5.0 (Macintosh; Intel Mac OS X 10_14_4) AppleWebKit/537.36 (KHTML, like Gecko) Chrome/74.0.3729.169 Safari/537.36"",""on_chrome"":true,""on_mobile"":false,""language"":""en-US"",""screen_resolution"":[1440,900],""platform"":""MacIntel"",""timezone"":""Europe/Berlin""}","26","4895.230000003567","","","1559722351133","8","","","[]","Gotha","false","false","5654.240000003483"
"","html-voicekey-response","20","72343","0.0-4.16-0.16","5mzqhtpbjr5upge","{""user_agent"":""Mozilla/5.0 (Macintosh; Intel Mac OS X 10_14_4) AppleWebKit/537.36 (KHTML, like Gecko) Chrome/74.0.3729.169 Safari/537.36"",""on_chrome"":true,""on_mobile"":false,""language"":""en-US"",""screen_resolution"":[1440,900],""platform"":""MacIntel"",""timezone"":""Europe/Berlin""}","26","1089.0600000073669","","","1559722360790","2","","Berlin","[]","Berlin","true","false","1810.5999999970663"
"","html-voicekey-response","21","74760","0.0-4.17-0.17","5mzqhtpbjr5upge","{""user_agent"":""Mozilla/5.0 (Macintosh; Intel Mac OS X 10_14_4) AppleWebKit/537.36 (KHTML, like Gecko) Chrome/74.0.3729.169 Safari/537.36"",""on_chrome"":true,""on_mobile"":false,""language"":""en-US"",""screen_resolution"":[1440,900],""platform"":""MacIntel"",""timezone"":""Europe/Berlin""}","26","1138.1299999864773","","","1559722363203","1","","Magdeburg","[]","Magdeburg","true","false","1813.479999982519"
"","html-voicekey-response","22","78044","0.0-4.18-0.18","5mzqhtpbjr5upge","{""user_agent"":""Mozilla/5.0 (Macintosh; Intel Mac OS X 10_14_4) AppleWebKit/537.36 (KHTML, like Gecko) Chrome/74.0.3729.169 Safari/537.36"",""on_chrome"":true,""on_mobile"":false,""language"":""en-US"",""screen_resolution"":[1440,900],""platform"":""MacIntel"",""timezone"":""Europe/Berlin""}","26","1987.8199999892154","","","1559722365620","9","","München","[]","München","true","true","2680.804999981774"
"","html-voicekey-response","23","81812","0.0-4.19-0.19","5mzqhtpbjr5upge","{""user_agent"":""Mozilla/5.0 (Macintosh; Intel Mac OS X 10_14_4) AppleWebKit/537.36 (KHTML, like Gecko) Chrome/74.0.3729.169 Safari/537.36"",""on_chrome"":true,""on_mobile"":false,""language"":""en-US"",""screen_resolution"":[1440,900],""platform"":""MacIntel"",""timezone"":""Europe/Berlin""}","26","2221.0649999995717","","","1559722368903","3","","Ingolstadt","[]","Ingolstadt","true","false","3163.6299999954645"
"","html-voicekey-response","24","84984","0.0-4.20-0.20","5mzqhtpbjr5upge","{""user_agent"":""Mozilla/5.0 (Macintosh; Intel Mac OS X 10_14_4) AppleWebKit/537.36 (KHTML, like Gecko) Chrome/74.0.3729.169 Safari/537.36"",""on_chrome"":true,""on_mobile"":false,""language"":""en-US"",""screen_resolution"":[1440,900],""platform"":""MacIntel"",""timezone"":""Europe/Berlin""}","26","1726.9250000043307","","","1559722372672","9","","München","[]","München","true","false","2569.305000011809"
"","html-voicekey-response","25","87415","0.0-4.21-0.21","5mzqhtpbjr5upge","{""user_agent"":""Mozilla/5.0 (Macintosh; Intel Mac OS X 10_14_4) AppleWebKit/537.36 (KHTML, like Gecko) Chrome/74.0.3729.169 Safari/537.36"",""on_chrome"":true,""on_mobile"":false,""language"":""en-US"",""screen_resolution"":[1440,900],""platform"":""MacIntel"",""timezone"":""Europe/Berlin""}","26","1138.2499999979977","","","1559722375843","4","","Würzburg","[]","Würzburg","true","false","1829.635000001872"
"","html-voicekey-response","26","90250","0.0-4.22-0.22","5mzqhtpbjr5upge","{""user_agent"":""Mozilla/5.0 (Macintosh; Intel Mac OS X 10_14_4) AppleWebKit/537.36 (KHTML, like Gecko) Chrome/74.0.3729.169 Safari/537.36"",""on_chrome"":true,""on_mobile"":false,""language"":""en-US"",""screen_resolution"":[1440,900],""platform"":""MacIntel"",""timezone"":""Europe/Berlin""}","26","1624.2299999956508","","","1559722378274","5","","Aachen","[]","Aachen","true","false","2232.6849999953993"
"","html-voicekey-response","27","93516","0.0-4.23-0.23","5mzqhtpbjr5upge","{""user_agent"":""Mozilla/5.0 (Macintosh; Intel Mac OS X 10_14_4) AppleWebKit/537.36 (KHTML, like Gecko) Chrome/74.0.3729.169 Safari/537.36"",""on_chrome"":true,""on_mobile"":false,""language"":""en-US"",""screen_resolution"":[1440,900],""platform"":""MacIntel"",""timezone"":""Europe/Berlin""}","26","1638.229999991227","","","1559722381110","10","","Heidelberg","[]","Heidelberg","true","true","2663.494999986142"
"","html-voicekey-response","28","96925","0.0-4.24-0.24","5mzqhtpbjr5upge","{""user_agent"":""Mozilla/5.0 (Macintosh; Intel Mac OS X 10_14_4) AppleWebKit/537.36 (KHTML, like Gecko) Chrome/74.0.3729.169 Safari/537.36"",""on_chrome"":true,""on_mobile"":false,""language"":""en-US"",""screen_resolution"":[1440,900],""platform"":""MacIntel"",""timezone"":""Europe/Berlin""}","26","1797.8950000050013","","","1559722384376","11","","Alfeld","[]","Alfeld","true","true","2806.650000013178"
"","html-voicekey-response","29","104042","0.0-4.25-0.25","5mzqhtpbjr5upge","{""user_agent"":""Mozilla/5.0 (Macintosh; Intel Mac OS X 10_14_4) AppleWebKit/537.36 (KHTML, like Gecko) Chrome/74.0.3729.169 Safari/537.36"",""on_chrome"":true,""on_mobile"":false,""language"":""en-US"",""screen_resolution"":[1440,900],""platform"":""MacIntel"",""timezone"":""Europe/Berlin""}","26","1971.2650000090712","","","1559722387786","10","","","[]","Heidelberg","false","false","3113.4449999954086"
"","html-voicekey-response","30","107950","0.0-4.26-0.26","5mzqhtpbjr5upge","{""user_agent"":""Mozilla/5.0 (Macintosh; Intel Mac OS X 10_14_4) AppleWebKit/537.36 (KHTML, like Gecko) Chrome/74.0.3729.169 Safari/537.36"",""on_chrome"":true,""on_mobile"":false,""language"":""en-US"",""screen_resolution"":[1440,900],""platform"":""MacIntel"",""timezone"":""Europe/Berlin""}","26","2505.1649999894203","","","1559722394902","11","","Alfeld","[]","Alfeld","true","false","3305.0449999864213"
"","html-voicekey-response","31","110433","0.0-4.27-0.27","5mzqhtpbjr5upge","{""user_agent"":""Mozilla/5.0 (Macintosh; Intel Mac OS X 10_14_4) AppleWebKit/537.36 (KHTML, like Gecko) Chrome/74.0.3729.169 Safari/537.36"",""on_chrome"":true,""on_mobile"":false,""language"":""en-US"",""screen_resolution"":[1440,900],""platform"":""MacIntel"",""timezone"":""Europe/Berlin""}","26","1121.7799999956974","","","1559722398810","6","","Dresden","[]","Dresden","true","false","1880.314999987604"
"","html-voicekey-response","32","112983","0.0-4.28-0.28","5mzqhtpbjr5upge","{""user_agent"":""Mozilla/5.0 (Macintosh; Intel Mac OS X 10_14_4) AppleWebKit/537.36 (KHTML, like Gecko) Chrome/74.0.3729.169 Safari/537.36"",""on_chrome"":true,""on_mobile"":false,""language"":""en-US"",""screen_resolution"":[1440,900],""platform"":""MacIntel"",""timezone"":""Europe/Berlin""}","26","1153.8349999844563","","","1559722401294","7","","Erfurt","[]","Erfurt","true","false","1946.189999987837"
"","html-voicekey-response","33","116134","0.0-4.29-0.29","5mzqhtpbjr5upge","{""user_agent"":""Mozilla/5.0 (Macintosh; Intel Mac OS X 10_14_4) AppleWebKit/537.36 (KHTML, like Gecko) Chrome/74.0.3729.169 Safari/537.36"",""on_chrome"":true,""on_mobile"":false,""language"":""en-US"",""screen_resolution"":[1440,900],""platform"":""MacIntel"",""timezone"":""Europe/Berlin""}","26","1805.4650000211318","","","1559722403842","8","","Gotha","[]","Gotha","true","false","2546.9600000069477"
"","html-voicekey-response","34","119161","0.0-4.30-0.30","5mzqhtpbjr5upge","{""user_agent"":""Mozilla/5.0 (Macintosh; Intel Mac OS X 10_14_4) AppleWebKit/537.36 (KHTML, like Gecko) Chrome/74.0.3729.169 Safari/537.36"",""on_chrome"":true,""on_mobile"":false,""language"":""en-US"",""screen_resolution"":[1440,900],""platform"":""MacIntel"",""timezone"":""Europe/Berlin""}","26","1847.890000013495","","","1559722406994","12","","Dessau","[]","Dessau","true","true","2424.2599999997765"
"","html-voicekey-response","35","122445","0.0-4.31-0.31","5mzqhtpbjr5upge","{""user_agent"":""Mozilla/5.0 (Macintosh; Intel Mac OS X 10_14_4) AppleWebKit/537.36 (KHTML, like Gecko) Chrome/74.0.3729.169 Safari/537.36"",""on_chrome"":true,""on_mobile"":false,""language"":""en-US"",""screen_resolution"":[1440,900],""platform"":""MacIntel"",""timezone"":""Europe/Berlin""}","26","1671.35999998739","","","1559722410021","13","","Chemnitz","[]","Chemnitz","true","true","2680.6199999991804"
"","html-voicekey-response","36","127513","0.0-4.32-0.32","5mzqhtpbjr5upge","{""user_agent"":""Mozilla/5.0 (Macintosh; Intel Mac OS X 10_14_4) AppleWebKit/537.36 (KHTML, like Gecko) Chrome/74.0.3729.169 Safari/537.36"",""on_chrome"":true,""on_mobile"":false,""language"":""en-US"",""screen_resolution"":[1440,900],""platform"":""MacIntel"",""timezone"":""Europe/Berlin""}","26","3836.650000020955","","","1559722413306","12","","Dessau","[]","Dessau","true","false","4462.390000000596"
"","html-voicekey-response","37","130619","0.0-4.33-0.33","5mzqhtpbjr5upge","{""user_agent"":""Mozilla/5.0 (Macintosh; Intel Mac OS X 10_14_4) AppleWebKit/537.36 (KHTML, like Gecko) Chrome/74.0.3729.169 Safari/537.36"",""on_chrome"":true,""on_mobile"":false,""language"":""en-US"",""screen_resolution"":[1440,900],""platform"":""MacIntel"",""timezone"":""Europe/Berlin""}","26","1694.6499999993016","","","1559722418373","13","","Chemnitz","[]","Chemnitz","true","false","2503.0799999949522"
"","html-voicekey-response","38","133119","0.0-4.34-0.34","5mzqhtpbjr5upge","{""user_agent"":""Mozilla/5.0 (Macintosh; Intel Mac OS X 10_14_4) AppleWebKit/537.36 (KHTML, like Gecko) Chrome/74.0.3729.169 Safari/537.36"",""on_chrome"":true,""on_mobile"":false,""language"":""en-US"",""screen_resolution"":[1440,900],""platform"":""MacIntel"",""timezone"":""Europe/Berlin""}","26","1136.9050000010525","","","1559722421481","9","","München","[]","München","true","false","1895.5550000246149"
"","html-voicekey-response","39","136686","0.0-4.35-0.35","5mzqhtpbjr5upge","{""user_agent"":""Mozilla/5.0 (Macintosh; Intel Mac OS X 10_14_4) AppleWebKit/537.36 (KHTML, like Gecko) Chrome/74.0.3729.169 Safari/537.36"",""on_chrome"":true,""on_mobile"":false,""language"":""en-US"",""screen_resolution"":[1440,900],""platform"":""MacIntel"",""timezone"":""Europe/Berlin""}","26","2105.150000026543","","","1559722423979","14","","Potsdam","[]","Potsdam","true","true","2964.575000019977"
"","html-voicekey-response","40","140795","0.0-4.36-0.36","5mzqhtpbjr5upge","{""user_agent"":""Mozilla/5.0 (Macintosh; Intel Mac OS X 10_14_4) AppleWebKit/537.36 (KHTML, like Gecko) Chrome/74.0.3729.169 Safari/537.36"",""on_chrome"":true,""on_mobile"":false,""language"":""en-US"",""screen_resolution"":[1440,900],""platform"":""MacIntel"",""timezone"":""Europe/Berlin""}","26","2370.9750000069384","","","1559722427546","15","","Nürnberg","[]","Nürnberg","true","true","3505.5350000038743"
"","html-voicekey-response","41","146778","0.0-4.37-0.37","5mzqhtpbjr5upge","{""user_agent"":""Mozilla/5.0 (Macintosh; Intel Mac OS X 10_14_4) AppleWebKit/537.36 (KHTML, like Gecko) Chrome/74.0.3729.169 Safari/537.36"",""on_chrome"":true,""on_mobile"":false,""language"":""en-US"",""screen_resolution"":[1440,900],""platform"":""MacIntel"",""timezone"":""Europe/Berlin""}","26","4537.369999985303","","","1559722431654","14","","Potsdam","[]","Potsdam","true","false","5380.0849999825"
"","html-voicekey-response","42","150635","0.0-4.38-0.38","5mzqhtpbjr5upge","{""user_agent"":""Mozilla/5.0 (Macintosh; Intel Mac OS X 10_14_4) AppleWebKit/537.36 (KHTML, like Gecko) Chrome/74.0.3729.169 Safari/537.36"",""on_chrome"":true,""on_mobile"":false,""language"":""en-US"",""screen_resolution"":[1440,900],""platform"":""MacIntel"",""timezone"":""Europe/Berlin""}","26","2370.4450000166894","","","1559722437638","15","","Nürnberg","[]","Nürnberg","true","false","3253.6700000055134"
"","html-voicekey-response","43","160635","0.0-4.39-0.39","5mzqhtpbjr5upge","{""user_agent"":""Mozilla/5.0 (Macintosh; Intel Mac OS X 10_14_4) AppleWebKit/537.36 (KHTML, like Gecko) Chrome/74.0.3729.169 Safari/537.36"",""on_chrome"":true,""on_mobile"":false,""language"":""en-US"",""screen_resolution"":[1440,900],""platform"":""MacIntel"",""timezone"":""Europe/Berlin""}","26","8755.53999999268","","","1559722441494","10","","Heidelberg","[]","Heidelberg","true","false","9397.099999972852"
"","html-voicekey-response","44","163547","0.0-4.40-0.40","5mzqhtpbjr5upge","{""user_agent"":""Mozilla/5.0 (Macintosh; Intel Mac OS X 10_14_4) AppleWebKit/537.36 (KHTML, like Gecko) Chrome/74.0.3729.169 Safari/537.36"",""on_chrome"":true,""on_mobile"":false,""language"":""en-US"",""screen_resolution"":[1440,900],""platform"":""MacIntel"",""timezone"":""Europe/Berlin""}","26","1333.694999988284","","","1559722451495","11","","Alfeld","[]","Alfeld","true","false","2309.110000001965"
"","html-voicekey-response","45","167130","0.0-4.41-0.41","5mzqhtpbjr5upge","{""user_agent"":""Mozilla/5.0 (Macintosh; Intel Mac OS X 10_14_4) AppleWebKit/537.36 (KHTML, like Gecko) Chrome/74.0.3729.169 Safari/537.36"",""on_chrome"":true,""on_mobile"":false,""language"":""en-US"",""screen_resolution"":[1440,900],""platform"":""MacIntel"",""timezone"":""Europe/Berlin""}","26","2021.9200000081678","","","1559722454407","16","","Schwangau","[]","Schwangau","true","true","2980.565000005299"
"","html-voicekey-response","46","169830","0.0-4.42-0.42","5mzqhtpbjr5upge","{""user_agent"":""Mozilla/5.0 (Macintosh; Intel Mac OS X 10_14_4) AppleWebKit/537.36 (KHTML, like Gecko) Chrome/74.0.3729.169 Safari/537.36"",""on_chrome"":true,""on_mobile"":false,""language"":""en-US"",""screen_resolution"":[1440,900],""platform"":""MacIntel"",""timezone"":""Europe/Berlin""}","26","1371.495000008354","","","1559722457991","12","","Dessau","[]","Dessau","true","false","2096.720000001369"
"","html-voicekey-response","47","172771","0.0-4.43-0.43","5mzqhtpbjr5upge","{""user_agent"":""Mozilla/5.0 (Macintosh; Intel Mac OS X 10_14_4) AppleWebKit/537.36 (KHTML, like Gecko) Chrome/74.0.3729.169 Safari/537.36"",""on_chrome"":true,""on_mobile"":false,""language"":""en-US"",""screen_resolution"":[1440,900],""platform"":""MacIntel"",""timezone"":""Europe/Berlin""}","26","1534.939999992121","","","1559722460693","16","","Schwangau","[]","Schwangau","true","false","2335.6299999868497"
"","html-voicekey-response","48","175671","0.0-4.44-0.44","5mzqhtpbjr5upge","{""user_agent"":""Mozilla/5.0 (Macintosh; Intel Mac OS X 10_14_4) AppleWebKit/537.36 (KHTML, like Gecko) Chrome/74.0.3729.169 Safari/537.36"",""on_chrome"":true,""on_mobile"":false,""language"":""en-US"",""screen_resolution"":[1440,900],""platform"":""MacIntel"",""timezone"":""Europe/Berlin""}","26","1504.7750000174624","","","1559722463631","17","","Leipzig","[]","Leipzig","true","true","2297.274999989895"
"","html-voicekey-response","49","178421","0.0-4.45-0.45","5mzqhtpbjr5upge","{""user_agent"":""Mozilla/5.0 (Macintosh; Intel Mac OS X 10_14_4) AppleWebKit/537.36 (KHTML, like Gecko) Chrome/74.0.3729.169 Safari/537.36"",""on_chrome"":true,""on_mobile"":false,""language"":""en-US"",""screen_resolution"":[1440,900],""platform"":""MacIntel"",""timezone"":""Europe/Berlin""}","26","1320.7299999865704","","","1559722466532","13","","Chemnitz","[]","Chemnitz","true","false","2146.1599999747705"
"","html-voicekey-response","50","181690","0.0-4.46-0.46","5mzqhtpbjr5upge","{""user_agent"":""Mozilla/5.0 (Macintosh; Intel Mac OS X 10_14_4) AppleWebKit/537.36 (KHTML, like Gecko) Chrome/74.0.3729.169 Safari/537.36"",""on_chrome"":true,""on_mobile"":false,""language"":""en-US"",""screen_resolution"":[1440,900],""platform"":""MacIntel"",""timezone"":""Europe/Berlin""}","26","1871.930000002822","","","1559722469281","17","","Leipzig","[]","Leipzig","true","false","2664.1550000058487"
"","html-voicekey-response","51","185297","0.0-4.47-0.47","5mzqhtpbjr5upge","{""user_agent"":""Mozilla/5.0 (Macintosh; Intel Mac OS X 10_14_4) AppleWebKit/537.36 (KHTML, like Gecko) Chrome/74.0.3729.169 Safari/537.36"",""on_chrome"":true,""on_mobile"":false,""language"":""en-US"",""screen_resolution"":[1440,900],""platform"":""MacIntel"",""timezone"":""Europe/Berlin""}","26","2027.2550000025426","","","1559722472551","18","","Forchheim","[]","Forchheim","true","true","3002.795000007609"
"","html-voicekey-response","52","188345","0.0-4.48-0.48","5mzqhtpbjr5upge","{""user_agent"":""Mozilla/5.0 (Macintosh; Intel Mac OS X 10_14_4) AppleWebKit/537.36 (KHTML, like Gecko) Chrome/74.0.3729.169 Safari/537.36"",""on_chrome"":true,""on_mobile"":false,""language"":""en-US"",""screen_resolution"":[1440,900],""platform"":""MacIntel"",""timezone"":""Europe/Berlin""}","26","1521.450000009127","","","1559722476156","19","","Frankfurt","[]","Frankfurt","true","true","2446.3249999971595"
"","html-voicekey-response","53","198631","0.0-4.49-0.49","5mzqhtpbjr5upge","{""user_agent"":""Mozilla/5.0 (Macintosh; Intel Mac OS X 10_14_4) AppleWebKit/537.36 (KHTML, like Gecko) Chrome/74.0.3729.169 Safari/537.36"",""on_chrome"":true,""on_mobile"":false,""language"":""en-US"",""screen_resolution"":[1440,900],""platform"":""MacIntel"",""timezone"":""Europe/Berlin""}","26","5706.149999992549","","","1559722479205","18","","","[]","Forchheim","false","false","6280.889999994542"
"","html-voicekey-response","54","201070","0.0-4.50-0.50","5mzqhtpbjr5upge","{""user_agent"":""Mozilla/5.0 (Macintosh; Intel Mac OS X 10_14_4) AppleWebKit/537.36 (KHTML, like Gecko) Chrome/74.0.3729.169 Safari/537.36"",""on_chrome"":true,""on_mobile"":false,""language"":""en-US"",""screen_resolution"":[1440,900],""platform"":""MacIntel"",""timezone"":""Europe/Berlin""}","26","1127.2900000129362","","","1559722489492","19","","Frankfurt","[]","Frankfurt","true","false","1835.7300000207033"
"","html-voicekey-response","55","203970","0.0-4.51-0.51","5mzqhtpbjr5upge","{""user_agent"":""Mozilla/5.0 (Macintosh; Intel Mac OS X 10_14_4) AppleWebKit/537.36 (KHTML, like Gecko) Chrome/74.0.3729.169 Safari/537.36"",""on_chrome"":true,""on_mobile"":false,""language"":""en-US"",""screen_resolution"":[1440,900],""platform"":""MacIntel"",""timezone"":""Europe/Berlin""}","26","1504.6499999969733","","","1559722491930","14","","Potsdam","[]","Potsdam","true","false","2296.759999997448"
"","html-voicekey-response","56","206372","0.0-4.52-0.52","5mzqhtpbjr5upge","{""user_agent"":""Mozilla/5.0 (Macintosh; Intel Mac OS X 10_14_4) AppleWebKit/537.36 (KHTML, like Gecko) Chrome/74.0.3729.169 Safari/537.36"",""on_chrome"":true,""on_mobile"":false,""language"":""en-US"",""screen_resolution"":[1440,900],""platform"":""MacIntel"",""timezone"":""Europe/Berlin""}","26","1121.6649999931456","","","1559722494830","10","","Heidelberg","[]","Heidelberg","true","false","1797.7700000046752"
"","html-voicekey-response","57","209631","0.0-4.53-0.53","5mzqhtpbjr5upge","{""user_agent"":""Mozilla/5.0 (Macintosh; Intel Mac OS X 10_14_4) AppleWebKit/537.36 (KHTML, like Gecko) Chrome/74.0.3729.169 Safari/537.36"",""on_chrome"":true,""on_mobile"":false,""language"":""en-US"",""screen_resolution"":[1440,900],""platform"":""MacIntel"",""timezone"":""Europe/Berlin""}","26","1880.6300000085962","","","1559722497232","15","","Nürnberg","[]","Nürnberg","true","false","2656.3749999913853"
"","html-voicekey-response","58","212181","0.0-4.54-0.54","5mzqhtpbjr5upge","{""user_agent"":""Mozilla/5.0 (Macintosh; Intel Mac OS X 10_14_4) AppleWebKit/537.36 (KHTML, like Gecko) Chrome/74.0.3729.169 Safari/537.36"",""on_chrome"":true,""on_mobile"":false,""language"":""en-US"",""screen_resolution"":[1440,900],""platform"":""MacIntel"",""timezone"":""Europe/Berlin""}","26","1287.865000000084","","","1559722500491","20","","Hamburg ","[]","Hamburg ","true","true","1946.4800000132527"
"","html-voicekey-response","59","215331","0.0-4.55-0.55","5mzqhtpbjr5upge","{""user_agent"":""Mozilla/5.0 (Macintosh; Intel Mac OS X 10_14_4) AppleWebKit/537.36 (KHTML, like Gecko) Chrome/74.0.3729.169 Safari/537.36"",""on_chrome"":true,""on_mobile"":false,""language"":""en-US"",""screen_resolution"":[1440,900],""platform"":""MacIntel"",""timezone"":""Europe/Berlin""}","26","1637.8550000170712","","","1559722503041","21","","Konstanz","[]","Konstanz","true","true","2547.0100000093225"
"","html-voicekey-response","60","217939","0.0-4.56-0.56","5mzqhtpbjr5upge","{""user_agent"":""Mozilla/5.0 (Macintosh; Intel Mac OS X 10_14_4) AppleWebKit/537.36 (KHTML, like Gecko) Chrome/74.0.3729.169 Safari/537.36"",""on_chrome"":true,""on_mobile"":false,""language"":""en-US"",""screen_resolution"":[1440,900],""platform"":""MacIntel"",""timezone"":""Europe/Berlin""}","26","1171.7999999908266","","","1559722506190","20","","Hamburg ","[]","Hamburg ","true","false","2005.814999982249"
"","html-voicekey-response","61","220455","0.0-4.57-0.57","5mzqhtpbjr5upge","{""user_agent"":""Mozilla/5.0 (Macintosh; Intel Mac OS X 10_14_4) AppleWebKit/537.36 (KHTML, like Gecko) Chrome/74.0.3729.169 Safari/537.36"",""on_chrome"":true,""on_mobile"":false,""language"":""en-US"",""screen_resolution"":[1440,900],""platform"":""MacIntel"",""timezone"":""Europe/Berlin""}","26","954.2450000097509","","","1559722508799","21","","Konstanz","[]","Konstanz","true","false","1912.8649999911431"
"","html-voicekey-response","62","223372","0.0-4.58-0.58","5mzqhtpbjr5upge","{""user_agent"":""Mozilla/5.0 (Macintosh; Intel Mac OS X 10_14_4) AppleWebKit/537.36 (KHTML, like Gecko) Chrome/74.0.3729.169 Safari/537.36"",""on_chrome"":true,""on_mobile"":false,""language"":""en-US"",""screen_resolution"":[1440,900],""platform"":""MacIntel"",""timezone"":""Europe/Berlin""}","26","1538.5150000018534","","","1559722511314","16","","Schwangau","[]","Schwangau","true","false","2314.5150000054855"
"","html-voicekey-response","63","225821","0.0-4.59-0.59","5mzqhtpbjr5upge","{""user_agent"":""Mozilla/5.0 (Macintosh; Intel Mac OS X 10_14_4) AppleWebKit/537.36 (KHTML, like Gecko) Chrome/74.0.3729.169 Safari/537.36"",""on_chrome"":true,""on_mobile"":false,""language"":""en-US"",""screen_resolution"":[1440,900],""platform"":""MacIntel"",""timezone"":""Europe/Berlin""}","26","938.2300000086892","","","1559722514232","17","","Leipzig","[]","Leipzig","true","false","1847.1800000115763"
"","html-voicekey-response","64","228547","0.0-4.60-0.60","5mzqhtpbjr5upge","{""user_agent"":""Mozilla/5.0 (Macintosh; Intel Mac OS X 10_14_4) AppleWebKit/537.36 (KHTML, like Gecko) Chrome/74.0.3729.169 Safari/537.36"",""on_chrome"":true,""on_mobile"":false,""language"":""en-US"",""screen_resolution"":[1440,900],""platform"":""MacIntel"",""timezone"":""Europe/Berlin""}","26","1555.8899999976625","","","1559722516681","22","","Bamberg","[]","Bamberg","true","true","2121.6049999929965"
"","html-voicekey-response","65","231764","0.0-4.61-0.61","5mzqhtpbjr5upge","{""user_agent"":""Mozilla/5.0 (Macintosh; Intel Mac OS X 10_14_4) AppleWebKit/537.36 (KHTML, like Gecko) Chrome/74.0.3729.169 Safari/537.36"",""on_chrome"":true,""on_mobile"":false,""language"":""en-US"",""screen_resolution"":[1440,900],""platform"":""MacIntel"",""timezone"":""Europe/Berlin""}","26","1805.4999999966008","","","1559722519406","23","","Stuttgart","[]","Stuttgart","true","true","2614.334999991115"
"","html-voicekey-response","66","234046","0.0-4.62-0.62","5mzqhtpbjr5upge","{""user_agent"":""Mozilla/5.0 (Macintosh; Intel Mac OS X 10_14_4) AppleWebKit/537.36 (KHTML, like Gecko) Chrome/74.0.3729.169 Safari/537.36"",""on_chrome"":true,""on_mobile"":false,""language"":""en-US"",""screen_resolution"":[1440,900],""platform"":""MacIntel"",""timezone"":""Europe/Berlin""}","26","954.0749999958556","","","1559722522624","22","","Bamberg","[]","Bamberg","true","false","1679.4549999758601"
"","html-voicekey-response","67","236279","0.0-4.63-0.63","5mzqhtpbjr5upge","{""user_agent"":""Mozilla/5.0 (Macintosh; Intel Mac OS X 10_14_4) AppleWebKit/537.36 (KHTML, like Gecko) Chrome/74.0.3729.169 Safari/537.36"",""on_chrome"":true,""on_mobile"":false,""language"":""en-US"",""screen_resolution"":[1440,900],""platform"":""MacIntel"",""timezone"":""Europe/Berlin""}","26","821.7649999804329","","","1559722524906","23","","Stuttgart","[]","Stuttgart","true","false","1629.51499997871"
"","html-voicekey-response","68","247421","0.0-4.64-0.64","5mzqhtpbjr5upge","{""user_agent"":""Mozilla/5.0 (Macintosh; Intel Mac OS X 10_14_4) AppleWebKit/537.36 (KHTML, like Gecko) Chrome/74.0.3729.169 Safari/537.36"",""on_chrome"":true,""on_mobile"":false,""language"":""en-US"",""screen_resolution"":[1440,900],""platform"":""MacIntel"",""timezone"":""Europe/Berlin""}","26","6555.819999988516","","","1559722527139","18","","","[]","Forchheim","false","false","7139.454999996815"
"","html-voicekey-response","69","249462","0.0-4.65-0.65","5mzqhtpbjr5upge","{""user_agent"":""Mozilla/5.0 (Macintosh; Intel Mac OS X 10_14_4) AppleWebKit/537.36 (KHTML, like Gecko) Chrome/74.0.3729.169 Safari/537.36"",""on_chrome"":true,""on_mobile"":false,""language"":""en-US"",""screen_resolution"":[1440,900],""platform"":""MacIntel"",""timezone"":""Europe/Berlin""}","26","786.2899999980349","","","1559722538283","24","","Köln","[]","Köln","true","true","1436.9099999894388"
"","html-voicekey-response","70","251930","0.0-4.66-0.66","5mzqhtpbjr5upge","{""user_agent"":""Mozilla/5.0 (Macintosh; Intel Mac OS X 10_14_4) AppleWebKit/537.36 (KHTML, like Gecko) Chrome/74.0.3729.169 Safari/537.36"",""on_chrome"":true,""on_mobile"":false,""language"":""en-US"",""screen_resolution"":[1440,900],""platform"":""MacIntel"",""timezone"":""Europe/Berlin""}","26","1055.3600000074134","","","1559722540322","19","","Frankfurt","[]","Frankfurt","true","false","1864.369999995688"
"","html-voicekey-response","71","255278","0.0-4.67-0.67","5mzqhtpbjr5upge","{""user_agent"":""Mozilla/5.0 (Macintosh; Intel Mac OS X 10_14_4) AppleWebKit/537.36 (KHTML, like Gecko) Chrome/74.0.3729.169 Safari/537.36"",""on_chrome"":true,""on_mobile"":false,""language"":""en-US"",""screen_resolution"":[1440,900],""platform"":""MacIntel"",""timezone"":""Europe/Berlin""}","26","2154.2999999745284","","","1559722542789","24","","Köln","[]","Köln","true","false","2745.404999994207"
"","html-voicekey-response","72","258462","0.0-4.68-0.68","5mzqhtpbjr5upge","{""user_agent"":""Mozilla/5.0 (Macintosh; Intel Mac OS X 10_14_4) AppleWebKit/537.36 (KHTML, like Gecko) Chrome/74.0.3729.169 Safari/537.36"",""on_chrome"":true,""on_mobile"":false,""language"":""en-US"",""screen_resolution"":[1440,900],""platform"":""MacIntel"",""timezone"":""Europe/Berlin""}","26","1738.660000011651","","","1559722546138","25","","Osnabrück","[]","Osnabrück","true","true","2580.995000025723"
"","html-voicekey-response","73","269955","0.0-4.69-0.69","5mzqhtpbjr5upge","{""user_agent"":""Mozilla/5.0 (Macintosh; Intel Mac OS X 10_14_4) AppleWebKit/537.36 (KHTML, like Gecko) Chrome/74.0.3729.169 Safari/537.36"",""on_chrome"":true,""on_mobile"":false,""language"":""en-US"",""screen_resolution"":[1440,900],""platform"":""MacIntel"",""timezone"":""Europe/Berlin""}","26","6864.684999987576","","","1559722549322","3","","","[]","Ingolstadt","false","false","7490.144999988843"
"","html-voicekey-response","74","282165","0.0-4.70-0.70","5mzqhtpbjr5upge","{""user_agent"":""Mozilla/5.0 (Macintosh; Intel Mac OS X 10_14_4) AppleWebKit/537.36 (KHTML, like Gecko) Chrome/74.0.3729.169 Safari/537.36"",""on_chrome"":true,""on_mobile"":false,""language"":""en-US"",""screen_resolution"":[1440,900],""platform"":""MacIntel"",""timezone"":""Europe/Berlin""}","26","7521.759999983105","","","1559722560815","25","","","[]","Osnabrück","false","false","8207.48499999172"
"","html-voicekey-response","75","284523","0.0-4.71-0.71","5mzqhtpbjr5upge","{""user_agent"":""Mozilla/5.0 (Macintosh; Intel Mac OS X 10_14_4) AppleWebKit/537.36 (KHTML, like Gecko) Chrome/74.0.3729.169 Safari/537.36"",""on_chrome"":true,""on_mobile"":false,""language"":""en-US"",""screen_resolution"":[1440,900],""platform"":""MacIntel"",""timezone"":""Europe/Berlin""}","26","1088.624999983795","","","1559722573025","20","","Hamburg ","[]","Hamburg ","true","false","1755.139999993844"
"","html-voicekey-response","76","288140","0.0-4.72-0.72","5mzqhtpbjr5upge","{""user_agent"":""Mozilla/5.0 (Macintosh; Intel Mac OS X 10_14_4) AppleWebKit/537.36 (KHTML, like Gecko) Chrome/74.0.3729.169 Safari/537.36"",""on_chrome"":true,""on_mobile"":false,""language"":""en-US"",""screen_resolution"":[1440,900],""platform"":""MacIntel"",""timezone"":""Europe/Berlin""}","26","2188.380000015814","","","1559722575383","21","","Konstanz","[]","Konstanz","true","false","3013.78000000841"
"","html-voicekey-response","77","291123","0.0-4.73-0.73","5mzqhtpbjr5upge","{""user_agent"":""Mozilla/5.0 (Macintosh; Intel Mac OS X 10_14_4) AppleWebKit/537.36 (KHTML, like Gecko) Chrome/74.0.3729.169 Safari/537.36"",""on_chrome"":true,""on_mobile"":false,""language"":""en-US"",""screen_resolution"":[1440,900],""platform"":""MacIntel"",""timezone"":""Europe/Berlin""}","26","1738.8099999896717","","","1559722578999","22","","Bamberg","[]","Bamberg","true","false","2380.670000013197"
"","html-voicekey-response","78","293674","0.0-4.74-0.74","5mzqhtpbjr5upge","{""user_agent"":""Mozilla/5.0 (Macintosh; Intel Mac OS X 10_14_4) AppleWebKit/537.36 (KHTML, like Gecko) Chrome/74.0.3729.169 Safari/537.36"",""on_chrome"":true,""on_mobile"":false,""language"":""en-US"",""screen_resolution"":[1440,900],""platform"":""MacIntel"",""timezone"":""Europe/Berlin""}","26","1388.134999995446","","","1559722581982","23","","Stuttgart","[]","Stuttgart","true","false","1947.1799999882933"
"","html-voicekey-response","79","302049","0.0-4.75-0.75","5mzqhtpbjr5upge","{""user_agent"":""Mozilla/5.0 (Macintosh; Intel Mac OS X 10_14_4) AppleWebKit/537.36 (KHTML, like Gecko) Chrome/74.0.3729.169 Safari/537.36"",""on_chrome"":true,""on_mobile"":false,""language"":""en-US"",""screen_resolution"":[1440,900],""platform"":""MacIntel"",""timezone"":""Europe/Berlin""}","26","3229.3850000222214","","","1559722584534","18","","","[]","Forchheim","false","false","4371.765000018058"
"","html-voicekey-response","80","311580","0.0-4.76-0.76","5mzqhtpbjr5upge","{""user_agent"":""Mozilla/5.0 (Macintosh; Intel Mac OS X 10_14_4) AppleWebKit/537.36 (KHTML, like Gecko) Chrome/74.0.3729.169 Safari/537.36"",""on_chrome"":true,""on_mobile"":false,""language"":""en-US"",""screen_resolution"":[1440,900],""platform"":""MacIntel"",""timezone"":""Europe/Berlin""}","26","3937.65499999593","","","1559722592909","10","","","[]","Heidelberg","false","false","5528.389999992214"
"","html-voicekey-response","81","313759","0.0-4.77-0.77","5mzqhtpbjr5upge","{""user_agent"":""Mozilla/5.0 (Macintosh; Intel Mac OS X 10_14_4) AppleWebKit/537.36 (KHTML, like Gecko) Chrome/74.0.3729.169 Safari/537.36"",""on_chrome"":true,""on_mobile"":false,""language"":""en-US"",""screen_resolution"":[1440,900],""platform"":""MacIntel"",""timezone"":""Europe/Berlin""}","26","1033.5949999951758","","","1559722602440","24","","Köln","[]","Köln","true","false","1576.3049999950454"
"","html-voicekey-response","82","317060","0.0-4.78-0.78","5mzqhtpbjr5upge","{""user_agent"":""Mozilla/5.0 (Macintosh; Intel Mac OS X 10_14_4) AppleWebKit/537.36 (KHTML, like Gecko) Chrome/74.0.3729.169 Safari/537.36"",""on_chrome"":true,""on_mobile"":false,""language"":""en-US"",""screen_resolution"":[1440,900],""platform"":""MacIntel"",""timezone"":""Europe/Berlin""}","26","2004.829999999702","","","1559722604620","26","","Freiburg","[]","Freiburg","true","true","2697.2700000042096"
"","html-voicekey-response","83","320267","0.0-4.79-0.79","5mzqhtpbjr5upge","{""user_agent"":""Mozilla/5.0 (Macintosh; Intel Mac OS X 10_14_4) AppleWebKit/537.36 (KHTML, like Gecko) Chrome/74.0.3729.169 Safari/537.36"",""on_chrome"":true,""on_mobile"":false,""language"":""en-US"",""screen_resolution"":[1440,900],""platform"":""MacIntel"",""timezone"":""Europe/Berlin""}","26","1745.629999999283","","","1559722607920","27","","Tübingen","[]","Tübingen","true","true","2604.0349999966566"
"","html-voicekey-response","84","322734","0.0-4.80-0.80","5mzqhtpbjr5upge","{""user_agent"":""Mozilla/5.0 (Macintosh; Intel Mac OS X 10_14_4) AppleWebKit/537.36 (KHTML, like Gecko) Chrome/74.0.3729.169 Safari/537.36"",""on_chrome"":true,""on_mobile"":false,""language"":""en-US"",""screen_resolution"":[1440,900],""platform"":""MacIntel"",""timezone"":""Europe/Berlin""}","26","1055.640000014892","","","1559722611127","26","","Freiburg","[]","Freiburg","true","false","1864.5350000006147"
"","html-voicekey-response","85","325050","0.0-4.81-0.81","5mzqhtpbjr5upge","{""user_agent"":""Mozilla/5.0 (Macintosh; Intel Mac OS X 10_14_4) AppleWebKit/537.36 (KHTML, like Gecko) Chrome/74.0.3729.169 Safari/537.36"",""on_chrome"":true,""on_mobile"":false,""language"":""en-US"",""screen_resolution"":[1440,900],""platform"":""MacIntel"",""timezone"":""Europe/Berlin""}","26","854.1749999947846","","","1559722613594","27","","Tübingen","[]","Tübingen","true","false","1713.1200000003446"
"","html-voicekey-response","86","335784","0.0-4.82-0.82","5mzqhtpbjr5upge","{""user_agent"":""Mozilla/5.0 (Macintosh; Intel Mac OS X 10_14_4) AppleWebKit/537.36 (KHTML, like Gecko) Chrome/74.0.3729.169 Safari/537.36"",""on_chrome"":true,""on_mobile"":false,""language"":""en-US"",""screen_resolution"":[1440,900],""platform"":""MacIntel"",""timezone"":""Europe/Berlin""}","26","6186.939999993983","","","1559722615911","18","","","[]","Forchheim","false","false","6729.259999992792"
"","html-voicekey-response","87","342378","0.0-4.83-0.83","5mzqhtpbjr5upge","{""user_agent"":""Mozilla/5.0 (Macintosh; Intel Mac OS X 10_14_4) AppleWebKit/537.36 (KHTML, like Gecko) Chrome/74.0.3729.169 Safari/537.36"",""on_chrome"":true,""on_mobile"":false,""language"":""en-US"",""screen_resolution"":[1440,900],""platform"":""MacIntel"",""timezone"":""Europe/Berlin""}","26","5248.535000000475","","","1559722626644","25","","Osnabrück","[]","Osnabrück","true","false","5990.959999995539"
"","html-voicekey-response","88","346219","0.0-4.84-0.84","5mzqhtpbjr5upge","{""user_agent"":""Mozilla/5.0 (Macintosh; Intel Mac OS X 10_14_4) AppleWebKit/537.36 (KHTML, like Gecko) Chrome/74.0.3729.169 Safari/537.36"",""on_chrome"":true,""on_mobile"":false,""language"":""en-US"",""screen_resolution"":[1440,900],""platform"":""MacIntel"",""timezone"":""Europe/Berlin""}","26","2493.640000009537","","","1559722633241","10","","Heidelberg","[]","Heidelberg","true","false","3235.7199999969453"
"","html-voicekey-response","89","355719","0.0-4.85-0.85","5mzqhtpbjr5upge","{""user_agent"":""Mozilla/5.0 (Macintosh; Intel Mac OS X 10_14_4) AppleWebKit/537.36 (KHTML, like Gecko) Chrome/74.0.3729.169 Safari/537.36"",""on_chrome"":true,""on_mobile"":false,""language"":""en-US"",""screen_resolution"":[1440,900],""platform"":""MacIntel"",""timezone"":""Europe/Berlin""}","26","4988.104999976558","","","1559722637079","3","","","[]","Ingolstadt","false","false","5496.939999982715"
"","html-voicekey-response","90","362048","0.0-4.86-0.86","5mzqhtpbjr5upge","{""user_agent"":""Mozilla/5.0 (Macintosh; Intel Mac OS X 10_14_4) AppleWebKit/537.36 (KHTML, like Gecko) Chrome/74.0.3729.169 Safari/537.36"",""on_chrome"":true,""on_mobile"":false,""language"":""en-US"",""screen_resolution"":[1440,900],""platform"":""MacIntel"",""timezone"":""Europe/Berlin""}","26","5021.335000006575","","","1559722646579","18","","Forchheim","[]","Forchheim","true","false","5725.999999995111"
"","html-voicekey-response","91","364315","0.0-4.87-0.87","5mzqhtpbjr5upge","{""user_agent"":""Mozilla/5.0 (Macintosh; Intel Mac OS X 10_14_4) AppleWebKit/537.36 (KHTML, like Gecko) Chrome/74.0.3729.169 Safari/537.36"",""on_chrome"":true,""on_mobile"":false,""language"":""en-US"",""screen_resolution"":[1440,900],""platform"":""MacIntel"",""timezone"":""Europe/Berlin""}","26","1105.0099999791478","","","1559722652908","2","","Berlin","[]","Berlin","true","false","1663.639999984298"
"","html-voicekey-response","92","368533","0.0-4.88-0.88","5mzqhtpbjr5upge","{""user_agent"":""Mozilla/5.0 (Macintosh; Intel Mac OS X 10_14_4) AppleWebKit/537.36 (KHTML, like Gecko) Chrome/74.0.3729.169 Safari/537.36"",""on_chrome"":true,""on_mobile"":false,""language"":""en-US"",""screen_resolution"":[1440,900],""platform"":""MacIntel"",""timezone"":""Europe/Berlin""}","26","1470.5000000047498","","","1559722655175","28","","Regensburg","[]","Regensburg","true","true","3613.344999990659"
"","html-voicekey-response","93","373807","0.0-4.89-0.89","5mzqhtpbjr5upge","{""user_agent"":""Mozilla/5.0 (Macintosh; Intel Mac OS X 10_14_4) AppleWebKit/537.36 (KHTML, like Gecko) Chrome/74.0.3729.169 Safari/537.36"",""on_chrome"":true,""on_mobile"":false,""language"":""en-US"",""screen_resolution"":[1440,900],""platform"":""MacIntel"",""timezone"":""Europe/Berlin""}","26","4026.785000003502","","","1559722659394","26","","Freiburg","[]","Freiburg","true","false","4669.2650000040885"
"","html-voicekey-response","94","376456","0.0-4.90-0.90","5mzqhtpbjr5upge","{""user_agent"":""Mozilla/5.0 (Macintosh; Intel Mac OS X 10_14_4) AppleWebKit/537.36 (KHTML, like Gecko) Chrome/74.0.3729.169 Safari/537.36"",""on_chrome"":true,""on_mobile"":false,""language"":""en-US"",""screen_resolution"":[1440,900],""platform"":""MacIntel"",""timezone"":""Europe/Berlin""}","26","1304.1250000040513","","","1559722664667","28","","Regensburg","[]","Regensburg","true","false","2045.7100000057835"
"","html-voicekey-response","95","379164","0.0-4.91-0.91","5mzqhtpbjr5upge","{""user_agent"":""Mozilla/5.0 (Macintosh; Intel Mac OS X 10_14_4) AppleWebKit/537.36 (KHTML, like Gecko) Chrome/74.0.3729.169 Safari/537.36"",""on_chrome"":true,""on_mobile"":false,""language"":""en-US"",""screen_resolution"":[1440,900],""platform"":""MacIntel"",""timezone"":""Europe/Berlin""}","26","1404.755000004871","","","1559722667316","27","","Tübingen","[]","Tübingen","true","false","2105.1750000042375"
"","html-voicekey-response","96","387931","0.0-4.92-0.92","5mzqhtpbjr5upge","{""user_agent"":""Mozilla/5.0 (Macintosh; Intel Mac OS X 10_14_4) AppleWebKit/537.36 (KHTML, like Gecko) Chrome/74.0.3729.169 Safari/537.36"",""on_chrome"":true,""on_mobile"":false,""language"":""en-US"",""screen_resolution"":[1440,900],""platform"":""MacIntel"",""timezone"":""Europe/Berlin""}","26","3988.4399999953807","","","1559722670024","25","","","[]","Osnabrück","false","false","4763.55999999214"
"","html-voicekey-response","97","393305","0.0-4.93-0.93","5mzqhtpbjr5upge","{""user_agent"":""Mozilla/5.0 (Macintosh; Intel Mac OS X 10_14_4) AppleWebKit/537.36 (KHTML, like Gecko) Chrome/74.0.3729.169 Safari/537.36"",""on_chrome"":true,""on_mobile"":false,""language"":""en-US"",""screen_resolution"":[1440,900],""platform"":""MacIntel"",""timezone"":""Europe/Berlin""}","26","4070.92999999607","","","1559722678792","5","","Aachen","[]","Aachen","true","false","4770.604999997886"
"","html-voicekey-response","98","397322","0.0-4.94-0.94","5mzqhtpbjr5upge","{""user_agent"":""Mozilla/5.0 (Macintosh; Intel Mac OS X 10_14_4) AppleWebKit/537.36 (KHTML, like Gecko) Chrome/74.0.3729.169 Safari/537.36"",""on_chrome"":true,""on_mobile"":false,""language"":""en-US"",""screen_resolution"":[1440,900],""platform"":""MacIntel"",""timezone"":""Europe/Berlin""}","26","2704.5799999994692","","","1559722684165","10","","Heidelberg","[]","Heidelberg","true","false","3414.0149999875575"
"","html-voicekey-response","99","401805","0.0-4.95-0.95","5mzqhtpbjr5upge","{""user_agent"":""Mozilla/5.0 (Macintosh; Intel Mac OS X 10_14_4) AppleWebKit/537.36 (KHTML, like Gecko) Chrome/74.0.3729.169 Safari/537.36"",""on_chrome"":true,""on_mobile"":false,""language"":""en-US"",""screen_resolution"":[1440,900],""platform"":""MacIntel"",""timezone"":""Europe/Berlin""}","26","3303.6400000072085","","","1559722688182","18","","Forchheim","[]","Forchheim","true","false","3879.740000003949"
"","html-voicekey-response","100","404168","0.0-4.96-0.96","5mzqhtpbjr5upge","{""user_agent"":""Mozilla/5.0 (Macintosh; Intel Mac OS X 10_14_4) AppleWebKit/537.36 (KHTML, like Gecko) Chrome/74.0.3729.169 Safari/537.36"",""on_chrome"":true,""on_mobile"":false,""language"":""en-US"",""screen_resolution"":[1440,900],""platform"":""MacIntel"",""timezone"":""Europe/Berlin""}","26","1250.4449999922422","","","1559722692666","1","","Magdeburg","[]","Magdeburg","true","false","1758.7300000013784"
"","html-voicekey-response","101","408767","0.0-4.97-0.97","5mzqhtpbjr5upge","{""user_agent"":""Mozilla/5.0 (Macintosh; Intel Mac OS X 10_14_4) AppleWebKit/537.36 (KHTML, like Gecko) Chrome/74.0.3729.169 Safari/537.36"",""on_chrome"":true,""on_mobile"":false,""language"":""en-US"",""screen_resolution"":[1440,900],""platform"":""MacIntel"",""timezone"":""Europe/Berlin""}","26","3419.8899999990595","","","1559722695029","4","","Würzburg","[]","Würzburg","true","false","3995.779999997467"
"","html-voicekey-response","102","419736","0.0-4.98-0.98","5mzqhtpbjr5upge","{""user_agent"":""Mozilla/5.0 (Macintosh; Intel Mac OS X 10_14_4) AppleWebKit/537.36 (KHTML, like Gecko) Chrome/74.0.3729.169 Safari/537.36"",""on_chrome"":true,""on_mobile"":false,""language"":""en-US"",""screen_resolution"":[1440,900],""platform"":""MacIntel"",""timezone"":""Europe/Berlin""}","26","5503.845000008214","","","1559722699628","3","","","[]","Ingolstadt","false","false","6962.954999995418"
"","html-voicekey-response","103","428191","0.0-4.99-0.99","5mzqhtpbjr5upge","{""user_agent"":""Mozilla/5.0 (Macintosh; Intel Mac OS X 10_14_4) AppleWebKit/537.36 (KHTML, like Gecko) Chrome/74.0.3729.169 Safari/537.36"",""on_chrome"":true,""on_mobile"":false,""language"":""en-US"",""screen_resolution"":[1440,900],""platform"":""MacIntel"",""timezone"":""Europe/Berlin""}","26","7058.185000010626","","","1559722710597","25","","Osnabrück","[]","Osnabrück","true","false","7849.6199999935925"
"","html-voicekey-response","104","430869","0.0-4.100-0.100","5mzqhtpbjr5upge","{""user_agent"":""Mozilla/5.0 (Macintosh; Intel Mac OS X 10_14_4) AppleWebKit/537.36 (KHTML, like Gecko) Chrome/74.0.3729.169 Safari/537.36"",""on_chrome"":true,""on_mobile"":false,""language"":""en-US"",""screen_resolution"":[1440,900],""platform"":""MacIntel"",""timezone"":""Europe/Berlin""}","26","1549.7650000123308","","","1559722719051","26","","Freiburg","[]","Freiburg","true","false","2074.140000011539"
"","html-voicekey-response","105","434336","0.0-4.101-0.101","5mzqhtpbjr5upge","{""user_agent"":""Mozilla/5.0 (Macintosh; Intel Mac OS X 10_14_4) AppleWebKit/537.36 (KHTML, like Gecko) Chrome/74.0.3729.169 Safari/537.36"",""on_chrome"":true,""on_mobile"":false,""language"":""en-US"",""screen_resolution"":[1440,900],""platform"":""MacIntel"",""timezone"":""Europe/Berlin""}","26","1971.7449999969454","","","1559722721730","28","","Regensburg","[]","Regensburg","true","false","2863.1599999789614"
"","html-voicekey-response","106","436602","0.0-4.102-0.102","5mzqhtpbjr5upge","{""user_agent"":""Mozilla/5.0 (Macintosh; Intel Mac OS X 10_14_4) AppleWebKit/537.36 (KHTML, like Gecko) Chrome/74.0.3729.169 Safari/537.36"",""on_chrome"":true,""on_mobile"":false,""language"":""en-US"",""screen_resolution"":[1440,900],""platform"":""MacIntel"",""timezone"":""Europe/Berlin""}","26","1035.6949999785052","","","1559722725199","7","","Erfurt","[]","Erfurt","true","false","1660.909999976866"
"","html-voicekey-response","107","439087","0.0-4.103-0.103","5mzqhtpbjr5upge","{""user_agent"":""Mozilla/5.0 (Macintosh; Intel Mac OS X 10_14_4) AppleWebKit/537.36 (KHTML, like Gecko) Chrome/74.0.3729.169 Safari/537.36"",""on_chrome"":true,""on_mobile"":false,""language"":""en-US"",""screen_resolution"":[1440,900],""platform"":""MacIntel"",""timezone"":""Europe/Berlin""}","26","1188.0500000059606","","","1559722727463","8","","Gotha","[]","Gotha","true","false","1879.8599999863654"
"","html-voicekey-response","108","443343","0.0-4.104-0.104","5mzqhtpbjr5upge","{""user_agent"":""Mozilla/5.0 (Macintosh; Intel Mac OS X 10_14_4) AppleWebKit/537.36 (KHTML, like Gecko) Chrome/74.0.3729.169 Safari/537.36"",""on_chrome"":true,""on_mobile"":false,""language"":""en-US"",""screen_resolution"":[1440,900],""platform"":""MacIntel"",""timezone"":""Europe/Berlin""}","26","3161.23999999566","","","1559722729947","25","","Osnabrück","[]","Osnabrück","true","false","3653.104999975767"
"","html-voicekey-response","109","445343","0.0-4.105-0.105","5mzqhtpbjr5upge","{""user_agent"":""Mozilla/5.0 (Macintosh; Intel Mac OS X 10_14_4) AppleWebKit/537.36 (KHTML, like Gecko) Chrome/74.0.3729.169 Safari/537.36"",""on_chrome"":true,""on_mobile"":false,""language"":""en-US"",""screen_resolution"":[1440,900],""platform"":""MacIntel"",""timezone"":""Europe/Berlin""}","26","854.0149999988265","","","1559722734204","9","","München","[]","München","true","false","1394.9049999937415"
"","html-voicekey-response","110","447643","0.0-4.106-0.106","5mzqhtpbjr5upge","{""user_agent"":""Mozilla/5.0 (Macintosh; Intel Mac OS X 10_14_4) AppleWebKit/537.36 (KHTML, like Gecko) Chrome/74.0.3729.169 Safari/537.36"",""on_chrome"":true,""on_mobile"":false,""language"":""en-US"",""screen_resolution"":[1440,900],""platform"":""MacIntel"",""timezone"":""Europe/Berlin""}","26","1053.6799999916461","","","1559722736204","6","","Dresden","[]","Dresden","true","false","1696.3049999903888"
"","html-voicekey-response","111","461593","0.0-4.107-0.107","5mzqhtpbjr5upge","{""user_agent"":""Mozilla/5.0 (Macintosh; Intel Mac OS X 10_14_4) AppleWebKit/537.36 (KHTML, like Gecko) Chrome/74.0.3729.169 Safari/537.36"",""on_chrome"":true,""on_mobile"":false,""language"":""en-US"",""screen_resolution"":[1440,900],""platform"":""MacIntel"",""timezone"":""Europe/Berlin""}","26","9170.214999999944","","","1559722738504","18","","","[]","Forchheim","false","false","9946.504999999888"
"","html-voicekey-response","112","464460","0.0-4.108-0.108","5mzqhtpbjr5upge","{""user_agent"":""Mozilla/5.0 (Macintosh; Intel Mac OS X 10_14_4) AppleWebKit/537.36 (KHTML, like Gecko) Chrome/74.0.3729.169 Safari/537.36"",""on_chrome"":true,""on_mobile"":false,""language"":""en-US"",""screen_resolution"":[1440,900],""platform"":""MacIntel"",""timezone"":""Europe/Berlin""}","26","1818.9650000220631","","","1559722752454","12","","Dessau","[]","Dessau","true","false","2262.350000004517"
"","html-voicekey-response","113","467758","0.0-4.109-0.109","5mzqhtpbjr5upge","{""user_agent"":""Mozilla/5.0 (Macintosh; Intel Mac OS X 10_14_4) AppleWebKit/537.36 (KHTML, like Gecko) Chrome/74.0.3729.169 Safari/537.36"",""on_chrome"":true,""on_mobile"":false,""language"":""en-US"",""screen_resolution"":[1440,900],""platform"":""MacIntel"",""timezone"":""Europe/Berlin""}","26","1969.3650000061375","","","1559722755321","18","","Forchheim","[]","Forchheim","true","false","2694.72999998834"
"","html-voicekey-response","114","470950","0.0-4.110-0.110","5mzqhtpbjr5upge","{""user_agent"":""Mozilla/5.0 (Macintosh; Intel Mac OS X 10_14_4) AppleWebKit/537.36 (KHTML, like Gecko) Chrome/74.0.3729.169 Safari/537.36"",""on_chrome"":true,""on_mobile"":false,""language"":""en-US"",""screen_resolution"":[1440,900],""platform"":""MacIntel"",""timezone"":""Europe/Berlin""}","26","2080.1199999785517","","","1559722758619","10","","Heidelberg","[]","Heidelberg","true","false","2587.4299999850336"
"","html-voicekey-response","115","473333","0.0-4.111-0.111","5mzqhtpbjr5upge","{""user_agent"":""Mozilla/5.0 (Macintosh; Intel Mac OS X 10_14_4) AppleWebKit/537.36 (KHTML, like Gecko) Chrome/74.0.3729.169 Safari/537.36"",""on_chrome"":true,""on_mobile"":false,""language"":""en-US"",""screen_resolution"":[1440,900],""platform"":""MacIntel"",""timezone"":""Europe/Berlin""}","26","1087.2300000135788","","","1559722761811","25","","Osnabrück","[]","Osnabrück","true","false","1778.2900000165682"
"","html-voicekey-response","116","476333","0.0-4.112-0.112","5mzqhtpbjr5upge","{""user_agent"":""Mozilla/5.0 (Macintosh; Intel Mac OS X 10_14_4) AppleWebKit/537.36 (KHTML, like Gecko) Chrome/74.0.3729.169 Safari/537.36"",""on_chrome"":true,""on_mobile"":false,""language"":""en-US"",""screen_resolution"":[1440,900],""platform"":""MacIntel"",""timezone"":""Europe/Berlin""}","26","1686.290000021318","","","1559722764195","29","","Jena","[]","Jena","true","true","2395.8050000073854"
"","html-voicekey-response","117","479402","0.0-4.113-0.113","5mzqhtpbjr5upge","{""user_agent"":""Mozilla/5.0 (Macintosh; Intel Mac OS X 10_14_4) AppleWebKit/537.36 (KHTML, like Gecko) Chrome/74.0.3729.169 Safari/537.36"",""on_chrome"":true,""on_mobile"":false,""language"":""en-US"",""screen_resolution"":[1440,900],""platform"":""MacIntel"",""timezone"":""Europe/Berlin""}","26","1686.9950000053273","","","1559722767195","30","","Bremen","[]","Bremen","true","true","2462.550000025658"
"","html-voicekey-response","118","482425","0.0-4.114-0.114","5mzqhtpbjr5upge","{""user_agent"":""Mozilla/5.0 (Macintosh; Intel Mac OS X 10_14_4) AppleWebKit/537.36 (KHTML, like Gecko) Chrome/74.0.3729.169 Safari/537.36"",""on_chrome"":true,""on_mobile"":false,""language"":""en-US"",""screen_resolution"":[1440,900],""platform"":""MacIntel"",""timezone"":""Europe/Berlin""}","26","1893.7349999994972","","","1559722770264","29","","Jena","[]","Jena","true","false","2418.7200000160374"
"","html-voicekey-response","119","484708","0.0-4.115-0.115","5mzqhtpbjr5upge","{""user_agent"":""Mozilla/5.0 (Macintosh; Intel Mac OS X 10_14_4) AppleWebKit/537.36 (KHTML, like Gecko) Chrome/74.0.3729.169 Safari/537.36"",""on_chrome"":true,""on_mobile"":false,""language"":""en-US"",""screen_resolution"":[1440,900],""platform"":""MacIntel"",""timezone"":""Europe/Berlin""}","26","803.2849999816157","","","1559722773287","30","","Bremen","[]","Bremen","true","false","1678.2399999792688"
"","html-voicekey-response","120","487141","0.0-4.116-0.116","5mzqhtpbjr5upge","{""user_agent"":""Mozilla/5.0 (Macintosh; Intel Mac OS X 10_14_4) AppleWebKit/537.36 (KHTML, like Gecko) Chrome/74.0.3729.169 Safari/537.36"",""on_chrome"":true,""on_mobile"":false,""language"":""en-US"",""screen_resolution"":[1440,900],""platform"":""MacIntel"",""timezone"":""Europe/Berlin""}","26","1271.2299999928568","","","1559722775569","5","","Aachen","[]","Aachen","true","false","1829.9149999802466"
"","html-voicekey-response","121","489444","0.0-4.117-0.117","5mzqhtpbjr5upge","{""user_agent"":""Mozilla/5.0 (Macintosh; Intel Mac OS X 10_14_4) AppleWebKit/537.36 (KHTML, like Gecko) Chrome/74.0.3729.169 Safari/537.36"",""on_chrome"":true,""on_mobile"":false,""language"":""en-US"",""screen_resolution"":[1440,900],""platform"":""MacIntel"",""timezone"":""Europe/Berlin""}","26","1120.8800000111573","","","1559722778003","13","","Chemnitz","[]","Chemnitz","true","false","1696.4500000176486"
"","html-voicekey-response","122","493165","0.0-4.118-0.118","5mzqhtpbjr5upge","{""user_agent"":""Mozilla/5.0 (Macintosh; Intel Mac OS X 10_14_4) AppleWebKit/537.36 (KHTML, like Gecko) Chrome/74.0.3729.169 Safari/537.36"",""on_chrome"":true,""on_mobile"":false,""language"":""en-US"",""screen_resolution"":[1440,900],""platform"":""MacIntel"",""timezone"":""Europe/Berlin""}","26","2307.3349999993575","","","1559722780306","11","","Alfeld","[]","Alfeld","true","false","3116.7399999976624"
"","html-voicekey-response","123","496649","0.0-4.119-0.119","5mzqhtpbjr5upge","{""user_agent"":""Mozilla/5.0 (Macintosh; Intel Mac OS X 10_14_4) AppleWebKit/537.36 (KHTML, like Gecko) Chrome/74.0.3729.169 Safari/537.36"",""on_chrome"":true,""on_mobile"":false,""language"":""en-US"",""screen_resolution"":[1440,900],""platform"":""MacIntel"",""timezone"":""Europe/Berlin""}","26","2185.6950000017882","","","1559722784028","4","","Würzburg","[]","Würzburg","true","false","2877.9750000103377"
"","html-voicekey-response","124","499131","0.0-4.120-0.120","5mzqhtpbjr5upge","{""user_agent"":""Mozilla/5.0 (Macintosh; Intel Mac OS X 10_14_4) AppleWebKit/537.36 (KHTML, like Gecko) Chrome/74.0.3729.169 Safari/537.36"",""on_chrome"":true,""on_mobile"":false,""language"":""en-US"",""screen_resolution"":[1440,900],""platform"":""MacIntel"",""timezone"":""Europe/Berlin""}","26","1353.590000022296","","","1559722787510","17","","Leipzig","[]","Leipzig","true","false","1878.4250000026077"
"","html-voicekey-response","125","501623","0.0-4.121-0.121","5mzqhtpbjr5upge","{""user_agent"":""Mozilla/5.0 (Macintosh; Intel Mac OS X 10_14_4) AppleWebKit/537.36 (KHTML, like Gecko) Chrome/74.0.3729.169 Safari/537.36"",""on_chrome"":true,""on_mobile"":false,""language"":""en-US"",""screen_resolution"":[1440,900],""platform"":""MacIntel"",""timezone"":""Europe/Berlin""}","26","1376.47500000624","","","1559722789995","18","","Forchheim","[]","Forchheim","true","false","1886.014999996405"
"","html-voicekey-response","126","508741","0.0-4.122-0.122","5mzqhtpbjr5upge","{""user_agent"":""Mozilla/5.0 (Macintosh; Intel Mac OS X 10_14_4) AppleWebKit/537.36 (KHTML, like Gecko) Chrome/74.0.3729.169 Safari/537.36"",""on_chrome"":true,""on_mobile"":false,""language"":""en-US"",""screen_resolution"":[1440,900],""platform"":""MacIntel"",""timezone"":""Europe/Berlin""}","26","5253.940000003995","","","1559722792484","14","","Potsdam","[]","Potsdam","true","false","6513.299999991432"
"","html-voicekey-response","127","516064","0.0-4.123-0.123","5mzqhtpbjr5upge","{""user_agent"":""Mozilla/5.0 (Macintosh; Intel Mac OS X 10_14_4) AppleWebKit/537.36 (KHTML, like Gecko) Chrome/74.0.3729.169 Safari/537.36"",""on_chrome"":true,""on_mobile"":false,""language"":""en-US"",""screen_resolution"":[1440,900],""platform"":""MacIntel"",""timezone"":""Europe/Berlin""}","26","5868.354999993089","","","1559722799602","16","","Schwangau","[]","Schwangau","true","false","6718.9500000094995"
"","html-voicekey-response","128","518764","0.0-4.124-0.124","5mzqhtpbjr5upge","{""user_agent"":""Mozilla/5.0 (Macintosh; Intel Mac OS X 10_14_4) AppleWebKit/537.36 (KHTML, like Gecko) Chrome/74.0.3729.169 Safari/537.36"",""on_chrome"":true,""on_mobile"":false,""language"":""en-US"",""screen_resolution"":[1440,900],""platform"":""MacIntel"",""timezone"":""Europe/Berlin""}","26","1503.7800000080374","","","1559722806925","25","","Osnabrück","[]","Osnabrück","true","false","2096.2500000023283"
"","html-voicekey-response","129","526607","0.0-4.125-0.125","5mzqhtpbjr5upge","{""user_agent"":""Mozilla/5.0 (Macintosh; Intel Mac OS X 10_14_4) AppleWebKit/537.36 (KHTML, like Gecko) Chrome/74.0.3729.169 Safari/537.36"",""on_chrome"":true,""on_mobile"":false,""language"":""en-US"",""screen_resolution"":[1440,900],""platform"":""MacIntel"",""timezone"":""Europe/Berlin""}","26","2836.3200000111015","","","1559722809626","3","","","[]","Ingolstadt","false","false","3838.5750000015832"
"","html-voicekey-response","130","531358","0.0-4.126-0.126","5mzqhtpbjr5upge","{""user_agent"":""Mozilla/5.0 (Macintosh; Intel Mac OS X 10_14_4) AppleWebKit/537.36 (KHTML, like Gecko) Chrome/74.0.3729.169 Safari/537.36"",""on_chrome"":true,""on_mobile"":false,""language"":""en-US"",""screen_resolution"":[1440,900],""platform"":""MacIntel"",""timezone"":""Europe/Berlin""}","26","3536.915000013169","","","1559722817469","29","","Jena","[]","Jena","true","false","4145.40500001749"
"","html-voicekey-response","131","534285","0.0-4.127-0.127","5mzqhtpbjr5upge","{""user_agent"":""Mozilla/5.0 (Macintosh; Intel Mac OS X 10_14_4) AppleWebKit/537.36 (KHTML, like Gecko) Chrome/74.0.3729.169 Safari/537.36"",""on_chrome"":true,""on_mobile"":false,""language"":""en-US"",""screen_resolution"":[1440,900],""platform"":""MacIntel"",""timezone"":""Europe/Berlin""}","26","1696.8699999941514","","","1559722822220","30","","Bremen","[]","Bremen","true","false","2321.864999976242"
"","html-voicekey-response","132","541652","0.0-4.128-0.128","5mzqhtpbjr5upge","{""user_agent"":""Mozilla/5.0 (Macintosh; Intel Mac OS X 10_14_4) AppleWebKit/537.36 (KHTML, like Gecko) Chrome/74.0.3729.169 Safari/537.36"",""on_chrome"":true,""on_mobile"":false,""language"":""en-US"",""screen_resolution"":[1440,900],""platform"":""MacIntel"",""timezone"":""Europe/Berlin""}","26","2119.0999999906403","","","1559722825147","15","","","[]","Nürnberg","false","false","3362.374999996973"
"","html-voicekey-response","133","544493","0.0-4.129-0.129","5mzqhtpbjr5upge","{""user_agent"":""Mozilla/5.0 (Macintosh; Intel Mac OS X 10_14_4) AppleWebKit/537.36 (KHTML, like Gecko) Chrome/74.0.3729.169 Safari/537.36"",""on_chrome"":true,""on_mobile"":false,""language"":""en-US"",""screen_resolution"":[1440,900],""platform"":""MacIntel"",""timezone"":""Europe/Berlin""}","26","1535.4900000182447","","","1559722832514","18","","Forchheim","[]","Forchheim","true","false","2236.009999993257"
"","html-voicekey-response","134","546827","0.0-4.130-0.130","5mzqhtpbjr5upge","{""user_agent"":""Mozilla/5.0 (Macintosh; Intel Mac OS X 10_14_4) AppleWebKit/537.36 (KHTML, like Gecko) Chrome/74.0.3729.169 Safari/537.36"",""on_chrome"":true,""on_mobile"":false,""language"":""en-US"",""screen_resolution"":[1440,900],""platform"":""MacIntel"",""timezone"":""Europe/Berlin""}","26","1236.220000000531","","","1559722835355","20","","Hamburg ","[]","Hamburg ","true","false","1728.174999996554"
"","html-voicekey-response","135","549393","0.0-4.131-0.131","5mzqhtpbjr5upge","{""user_agent"":""Mozilla/5.0 (Macintosh; Intel Mac OS X 10_14_4) AppleWebKit/537.36 (KHTML, like Gecko) Chrome/74.0.3729.169 Safari/537.36"",""on_chrome"":true,""on_mobile"":false,""language"":""en-US"",""screen_resolution"":[1440,900],""platform"":""MacIntel"",""timezone"":""Europe/Berlin""}","26","1319.564999992354","","","1559722837689","19","","Frankfurt","[]","Frankfurt","true","false","1961.4000000001397"
"","html-voicekey-response","136","557710","0.0-4.132-0.132","5mzqhtpbjr5upge","{""user_agent"":""Mozilla/5.0 (Macintosh; Intel Mac OS X 10_14_4) AppleWebKit/537.36 (KHTML, like Gecko) Chrome/74.0.3729.169 Safari/537.36"",""on_chrome"":true,""on_mobile"":false,""language"":""en-US"",""screen_resolution"":[1440,900],""platform"":""MacIntel"",""timezone"":""Europe/Berlin""}","26","3686.729999995651","","","1559722840255","21","","","[]","Konstanz","false","false","4311.619999993127"
"","html-voicekey-response","137","562400","0.0-4.133-0.133","5mzqhtpbjr5upge","{""user_agent"":""Mozilla/5.0 (Macintosh; Intel Mac OS X 10_14_4) AppleWebKit/537.36 (KHTML, like Gecko) Chrome/74.0.3729.169 Safari/537.36"",""on_chrome"":true,""on_mobile"":false,""language"":""en-US"",""screen_resolution"":[1440,900],""platform"":""MacIntel"",""timezone"":""Europe/Berlin""}","26","3409.1150000256953","","","1559722848572","3","","Ingolstadt","[]","Ingolstadt","true","false","4084.3600000080187"
"","html-voicekey-response","138","565334","0.0-4.134-0.134","5mzqhtpbjr5upge","{""user_agent"":""Mozilla/5.0 (Macintosh; Intel Mac OS X 10_14_4) AppleWebKit/537.36 (KHTML, like Gecko) Chrome/74.0.3729.169 Safari/537.36"",""on_chrome"":true,""on_mobile"":false,""language"":""en-US"",""screen_resolution"":[1440,900],""platform"":""MacIntel"",""timezone"":""Europe/Berlin""}","26","1602.4799999812153","","","1559722853262","25","","Osnabrück","[]","Osnabrück","true","false","2327.324999991106"
"","html-voicekey-response","139","567657","0.0-4.135-0.135","5mzqhtpbjr5upge","{""user_agent"":""Mozilla/5.0 (Macintosh; Intel Mac OS X 10_14_4) AppleWebKit/537.36 (KHTML, like Gecko) Chrome/74.0.3729.169 Safari/537.36"",""on_chrome"":true,""on_mobile"":false,""language"":""en-US"",""screen_resolution"":[1440,900],""platform"":""MacIntel"",""timezone"":""Europe/Berlin""}","26","1158.5200000061654","","","1559722856196","29","","Jena","[]","Jena","true","false","1718.3899999945424"
"","html-voicekey-response","140","569758","0.0-4.136-0.136","5mzqhtpbjr5upge","{""user_agent"":""Mozilla/5.0 (Macintosh; Intel Mac OS X 10_14_4) AppleWebKit/537.36 (KHTML, like Gecko) Chrome/74.0.3729.169 Safari/537.36"",""on_chrome"":true,""on_mobile"":false,""language"":""en-US"",""screen_resolution"":[1440,900],""platform"":""MacIntel"",""timezone"":""Europe/Berlin""}","26","969.4249999973457","","","1559722858519","23","","Stuttgart","[]","Stuttgart","true","false","1495.389999996405"
"","html-voicekey-response","141","582008","0.0-4.137-0.137","5mzqhtpbjr5upge","{""user_agent"":""Mozilla/5.0 (Macintosh; Intel Mac OS X 10_14_4) AppleWebKit/537.36 (KHTML, like Gecko) Chrome/74.0.3729.169 Safari/537.36"",""on_chrome"":true,""on_mobile"":false,""language"":""en-US"",""screen_resolution"":[1440,900],""platform"":""MacIntel"",""timezone"":""Europe/Berlin""}","26","7600.465000004833","","","1559722860621","22","","","[]","Bamberg","false","false","8242.050000000745"
"","html-voicekey-response","142","584318","0.0-4.138-0.138","5mzqhtpbjr5upge","{""user_agent"":""Mozilla/5.0 (Macintosh; Intel Mac OS X 10_14_4) AppleWebKit/537.36 (KHTML, like Gecko) Chrome/74.0.3729.169 Safari/537.36"",""on_chrome"":true,""on_mobile"":false,""language"":""en-US"",""screen_resolution"":[1440,900],""platform"":""MacIntel"",""timezone"":""Europe/Berlin""}","26","1212.9149999908173","","","1559722872870","24","","Köln","[]","Köln","true","false","1705.2749999857042"
"","html-voicekey-response","143","586918","0.0-4.139-0.139","5mzqhtpbjr5upge","{""user_agent"":""Mozilla/5.0 (Macintosh; Intel Mac OS X 10_14_4) AppleWebKit/537.36 (KHTML, like Gecko) Chrome/74.0.3729.169 Safari/537.36"",""on_chrome"":true,""on_mobile"":false,""language"":""en-US"",""screen_resolution"":[1440,900],""platform"":""MacIntel"",""timezone"":""Europe/Berlin""}","26","1385.9099999916275","","","1559722875181","10","","Heidelberg","[]","Heidelberg","true","false","1994.635000010021"
"","html-voicekey-response","144","589420","0.0-4.140-0.140","5mzqhtpbjr5upge","{""user_agent"":""Mozilla/5.0 (Macintosh; Intel Mac OS X 10_14_4) AppleWebKit/537.36 (KHTML, like Gecko) Chrome/74.0.3729.169 Safari/537.36"",""on_chrome"":true,""on_mobile"":false,""language"":""en-US"",""screen_resolution"":[1440,900],""platform"":""MacIntel"",""timezone"":""Europe/Berlin""}","26","1270.039999982901","","","1559722877780","14","","Potsdam","[]","Potsdam","true","false","1895.2399999834597"
"","html-voicekey-response","145","592126","0.0-4.141-0.141","5mzqhtpbjr5upge","{""user_agent"":""Mozilla/5.0 (Macintosh; Intel Mac OS X 10_14_4) AppleWebKit/537.36 (KHTML, like Gecko) Chrome/74.0.3729.169 Safari/537.36"",""on_chrome"":true,""on_mobile"":false,""language"":""en-US"",""screen_resolution"":[1440,900],""platform"":""MacIntel"",""timezone"":""Europe/Berlin""}","26","1491.2200000051876","","","1559722880283","16","","Schwangau","[]","Schwangau","true","false","2099.8400000098627"
"","html-voicekey-response","146","598776","0.0-4.142-0.142","5mzqhtpbjr5upge","{""user_agent"":""Mozilla/5.0 (Macintosh; Intel Mac OS X 10_14_4) AppleWebKit/537.36 (KHTML, like Gecko) Chrome/74.0.3729.169 Safari/537.36"",""on_chrome"":true,""on_mobile"":false,""language"":""en-US"",""screen_resolution"":[1440,900],""platform"":""MacIntel"",""timezone"":""Europe/Berlin""}","26","5452.315000011213","","","1559722882988","27","","Tübingen","[]","Tübingen","true","false","6045.03000000841"
"","html-voicekey-response","147","604734","0.0-4.143-0.143","5mzqhtpbjr5upge","{""user_agent"":""Mozilla/5.0 (Macintosh; Intel Mac OS X 10_14_4) AppleWebKit/537.36 (KHTML, like Gecko) Chrome/74.0.3729.169 Safari/537.36"",""on_chrome"":true,""on_mobile"":false,""language"":""en-US"",""screen_resolution"":[1440,900],""platform"":""MacIntel"",""timezone"":""Europe/Berlin""}","26","4702.72999999891","","","1559722889638","15","","Nürnberg","[]","Nürnberg","true","false","5351.889999990817"
"","html-voicekey-response","148","607017","0.0-4.144-0.144","5mzqhtpbjr5upge","{""user_agent"":""Mozilla/5.0 (Macintosh; Intel Mac OS X 10_14_4) AppleWebKit/537.36 (KHTML, like Gecko) Chrome/74.0.3729.169 Safari/537.36"",""on_chrome"":true,""on_mobile"":false,""language"":""en-US"",""screen_resolution"":[1440,900],""platform"":""MacIntel"",""timezone"":""Europe/Berlin""}","26","1202.0400000127033","","","1559722895596","26","","Freiburg","[]","Freiburg","true","false","1678.314999997383"
"","html-voicekey-response","149","610667","0.0-4.145-0.145","5mzqhtpbjr5upge","{""user_agent"":""Mozilla/5.0 (Macintosh; Intel Mac OS X 10_14_4) AppleWebKit/537.36 (KHTML, like Gecko) Chrome/74.0.3729.169 Safari/537.36"",""on_chrome"":true,""on_mobile"":false,""language"":""en-US"",""screen_resolution"":[1440,900],""platform"":""MacIntel"",""timezone"":""Europe/Berlin""}","26","2618.945000003651","","","1559722897880","18","","Forchheim","[]","Forchheim","true","false","3043.4600000153296"
"","html-voicekey-response","150","619827","0.0-4.146-0.146","5mzqhtpbjr5upge","{""user_agent"":""Mozilla/5.0 (Macintosh; Intel Mac OS X 10_14_4) AppleWebKit/537.36 (KHTML, like Gecko) Chrome/74.0.3729.169 Safari/537.36"",""on_chrome"":true,""on_mobile"":false,""language"":""en-US"",""screen_resolution"":[1440,900],""platform"":""MacIntel"",""timezone"":""Europe/Berlin""}","26","4228.615000008931","","","1559722901530","3","","","[]","Ingolstadt","false","false","5154.165000014473"
"","html-voicekey-response","151","624741","0.0-4.147-0.147","5mzqhtpbjr5upge","{""user_agent"":""Mozilla/5.0 (Macintosh; Intel Mac OS X 10_14_4) AppleWebKit/537.36 (KHTML, like Gecko) Chrome/74.0.3729.169 Safari/537.36"",""on_chrome"":true,""on_mobile"":false,""language"":""en-US"",""screen_resolution"":[1440,900],""platform"":""MacIntel"",""timezone"":""Europe/Berlin""}","26","3551.4099999944215","","","1559722910691","21","","Konstanz","[]","Konstanz","true","false","4307.505000004312"
"","html-voicekey-response","152","627425","0.0-4.148-0.148","5mzqhtpbjr5upge","{""user_agent"":""Mozilla/5.0 (Macintosh; Intel Mac OS X 10_14_4) AppleWebKit/537.36 (KHTML, like Gecko) Chrome/74.0.3729.169 Safari/537.36"",""on_chrome"":true,""on_mobile"":false,""language"":""en-US"",""screen_resolution"":[1440,900],""platform"":""MacIntel"",""timezone"":""Europe/Berlin""}","26","1501.3399999969174","","","1559722915604","22","","Bamberg","[]","Bamberg","true","false","2077.4749999982305"
"","html-voicekey-response","153","633242","0.0-4.149-0.149","5mzqhtpbjr5upge","{""user_agent"":""Mozilla/5.0 (Macintosh; Intel Mac OS X 10_14_4) AppleWebKit/537.36 (KHTML, like Gecko) Chrome/74.0.3729.169 Safari/537.36"",""on_chrome"":true,""on_mobile"":false,""language"":""en-US"",""screen_resolution"":[1440,900],""platform"":""MacIntel"",""timezone"":""Europe/Berlin""}","26","4567.870000007888","","","1559722918288","3","","Ingolstadt","[]","Ingolstadt","true","false","5209.670000011101"
"","html-voicekey-response","154","636483","0.0-4.150-0.150","5mzqhtpbjr5upge","{""user_agent"":""Mozilla/5.0 (Macintosh; Intel Mac OS X 10_14_4) AppleWebKit/537.36 (KHTML, like Gecko) Chrome/74.0.3729.169 Safari/537.36"",""on_chrome"":true,""on_mobile"":false,""language"":""en-US"",""screen_resolution"":[1440,900],""platform"":""MacIntel"",""timezone"":""Europe/Berlin""}","26","1943.4649999983144","","","1559722924106","28","","Regensburg","[]","Regensburg","true","false","2634.5999999903142"
"","html-voicekey-response","155","642801","0.0-4.151-0.151","5mzqhtpbjr5upge","{""user_agent"":""Mozilla/5.0 (Macintosh; Intel Mac OS X 10_14_4) AppleWebKit/537.36 (KHTML, like Gecko) Chrome/74.0.3729.169 Safari/537.36"",""on_chrome"":true,""on_mobile"":false,""language"":""en-US"",""screen_resolution"":[1440,900],""platform"":""MacIntel"",""timezone"":""Europe/Berlin""}","26","5168.86499999403","","","1559722927347","27","","Tübingen","[]","Tübingen","true","false","5711.535000009462"
"","html-voicekey-response","156","656075","0.0-4.152-0.152","5mzqhtpbjr5upge","{""user_agent"":""Mozilla/5.0 (Macintosh; Intel Mac OS X 10_14_4) AppleWebKit/537.36 (KHTML, like Gecko) Chrome/74.0.3729.169 Safari/537.36"",""on_chrome"":true,""on_mobile"":false,""language"":""en-US"",""screen_resolution"":[1440,900],""platform"":""MacIntel"",""timezone"":""Europe/Berlin""}","26","5308.984999990416","","","1559722933664","10","","","[]","Heidelberg","false","false","9268.249999993714"
"","html-voicekey-response","157","658971","0.0-4.153-0.153","5mzqhtpbjr5upge","{""user_agent"":""Mozilla/5.0 (Macintosh; Intel Mac OS X 10_14_4) AppleWebKit/537.36 (KHTML, like Gecko) Chrome/74.0.3729.169 Safari/537.36"",""on_chrome"":true,""on_mobile"":false,""language"":""en-US"",""screen_resolution"":[1440,900],""platform"":""MacIntel"",""timezone"":""Europe/Berlin""}","26","1567.8700000078884","","","1559722946938","18","","Forchheim","[]","Forchheim","true","false","2289.344999997411"
"","html-voicekey-response","158","667555","0.0-4.154-0.154","5mzqhtpbjr5upge","{""user_agent"":""Mozilla/5.0 (Macintosh; Intel Mac OS X 10_14_4) AppleWebKit/537.36 (KHTML, like Gecko) Chrome/74.0.3729.169 Safari/537.36"",""on_chrome"":true,""on_mobile"":false,""language"":""en-US"",""screen_resolution"":[1440,900],""platform"":""MacIntel"",""timezone"":""Europe/Berlin""}","26","7400.709999996097","","","1559722949834","15","","Nürnberg","[]","Nürnberg","true","false","7975.769999990007"
"","html-voicekey-response","159","679545","0.0-4.155-0.155","5mzqhtpbjr5upge","{""user_agent"":""Mozilla/5.0 (Macintosh; Intel Mac OS X 10_14_4) AppleWebKit/537.36 (KHTML, like Gecko) Chrome/74.0.3729.169 Safari/537.36"",""on_chrome"":true,""on_mobile"":false,""language"":""en-US"",""screen_resolution"":[1440,900],""platform"":""MacIntel"",""timezone"":""Europe/Berlin""}","26","6940.629999977164","","","1559722958419","3","","","[]","Ingolstadt","false","false","7982.394999999087"
"","html-voicekey-response","160","685519","0.0-4.156-0.156","5mzqhtpbjr5upge","{""user_agent"":""Mozilla/5.0 (Macintosh; Intel Mac OS X 10_14_4) AppleWebKit/537.36 (KHTML, like Gecko) Chrome/74.0.3729.169 Safari/537.36"",""on_chrome"":true,""on_mobile"":false,""language"":""en-US"",""screen_resolution"":[1440,900],""platform"":""MacIntel"",""timezone"":""Europe/Berlin""}","26","4500.355000005429","","","1559722970409","21","","Konstanz","[]","Konstanz","true","false","5367.209999996703"
"","html-voicekey-response","161","694237","0.0-4.157-0.157","5mzqhtpbjr5upge","{""user_agent"":""Mozilla/5.0 (Macintosh; Intel Mac OS X 10_14_4) AppleWebKit/537.36 (KHTML, like Gecko) Chrome/74.0.3729.169 Safari/537.36"",""on_chrome"":true,""on_mobile"":false,""language"":""en-US"",""screen_resolution"":[1440,900],""platform"":""MacIntel"",""timezone"":""Europe/Berlin""}","26","7400.379999986244","","","1559722976383","3","","Ingolstadt","[]","Ingolstadt","true","false","8109.949999983655"
"","html-voicekey-response","162","696981","0.0-4.158-0.158","5mzqhtpbjr5upge","{""user_agent"":""Mozilla/5.0 (Macintosh; Intel Mac OS X 10_14_4) AppleWebKit/537.36 (KHTML, like Gecko) Chrome/74.0.3729.169 Safari/537.36"",""on_chrome"":true,""on_mobile"":false,""language"":""en-US"",""screen_resolution"":[1440,900],""platform"":""MacIntel"",""timezone"":""Europe/Berlin""}","26","1695.0100000047591","","","1559722985101","27","","Tübingen","[]","Tübingen","true","false","2137.4899999937043"
"","html-voicekey-response","163","699215","0.0-4.159-0.159","5mzqhtpbjr5upge","{""user_agent"":""Mozilla/5.0 (Macintosh; Intel Mac OS X 10_14_4) AppleWebKit/537.36 (KHTML, like Gecko) Chrome/74.0.3729.169 Safari/537.36"",""on_chrome"":true,""on_mobile"":false,""language"":""en-US"",""screen_resolution"":[1440,900],""platform"":""MacIntel"",""timezone"":""Europe/Berlin""}","26","1017.5700000052806","","","1559722987845","3","","Ingolstadt","[]","Ingolstadt","true","false","1626.4550000196323"
"","html-voicekey-response","164","702331","0.0-4.160-0.160","5mzqhtpbjr5upge","{""user_agent"":""Mozilla/5.0 (Macintosh; Intel Mac OS X 10_14_4) AppleWebKit/537.36 (KHTML, like Gecko) Chrome/74.0.3729.169 Safari/537.36"",""on_chrome"":true,""on_mobile"":false,""language"":""en-US"",""screen_resolution"":[1440,900],""platform"":""MacIntel"",""timezone"":""Europe/Berlin""}","26","1900.5200000045356","","","1559722990079","25","","Osnabrück","[]","Osnabrück","true","false","2508.959999977378"
"","html-voicekey-response","165","704666","0.0-4.161-0.161","5mzqhtpbjr5upge","{""user_agent"":""Mozilla/5.0 (Macintosh; Intel Mac OS X 10_14_4) AppleWebKit/537.36 (KHTML, like Gecko) Chrome/74.0.3729.169 Safari/537.36"",""on_chrome"":true,""on_mobile"":false,""language"":""en-US"",""screen_resolution"":[1440,900],""platform"":""MacIntel"",""timezone"":""Europe/Berlin""}","26","1250.3700000032318","","","1559722993195","29","","Jena","[]","Jena","true","false","1727.0100000023376"
"","html-voicekey-response","166","707387","0.0-4.162-0.162","5mzqhtpbjr5upge","{""user_agent"":""Mozilla/5.0 (Macintosh; Intel Mac OS X 10_14_4) AppleWebKit/537.36 (KHTML, like Gecko) Chrome/74.0.3729.169 Safari/537.36"",""on_chrome"":true,""on_mobile"":false,""language"":""en-US"",""screen_resolution"":[1440,900],""platform"":""MacIntel"",""timezone"":""Europe/Berlin""}","26","1472.3800000009128","","","1559722995530","30","","Bremen","[]","Bremen","true","false","2113.884999998845"
"","html-voicekey-response","167","716505","0.0-4.163-0.163","5mzqhtpbjr5upge","{""user_agent"":""Mozilla/5.0 (Macintosh; Intel Mac OS X 10_14_4) AppleWebKit/537.36 (KHTML, like Gecko) Chrome/74.0.3729.169 Safari/537.36"",""on_chrome"":true,""on_mobile"":false,""language"":""en-US"",""screen_resolution"":[1440,900],""platform"":""MacIntel"",""timezone"":""Europe/Berlin""}","26","3500.4749999878463","","","1559722998251","4","","","[]","Würzburg","false","false","5110.275000013644"
"","html-voicekey-response","168","724183","0.0-4.164-0.164","5mzqhtpbjr5upge","{""user_agent"":""Mozilla/5.0 (Macintosh; Intel Mac OS X 10_14_4) AppleWebKit/537.36 (KHTML, like Gecko) Chrome/74.0.3729.169 Safari/537.36"",""on_chrome"":true,""on_mobile"":false,""language"":""en-US"",""screen_resolution"":[1440,900],""platform"":""MacIntel"",""timezone"":""Europe/Berlin""}","26","6182.5699999843255","","","1559723007368","3","","Ingolstadt","[]","Ingolstadt","true","false","7071.570000000065"
"","html-voicekey-response","169","727033","0.0-4.165-0.165","5mzqhtpbjr5upge","{""user_agent"":""Mozilla/5.0 (Macintosh; Intel Mac OS X 10_14_4) AppleWebKit/537.36 (KHTML, like Gecko) Chrome/74.0.3729.169 Safari/537.36"",""on_chrome"":true,""on_mobile"":false,""language"":""en-US"",""screen_resolution"":[1440,900],""platform"":""MacIntel"",""timezone"":""Europe/Berlin""}","26","1616.1050000026357","","","1559723015047","10","","Heidelberg","[]","Heidelberg","true","false","2243.4399999910966"
