"value","trial_type","trial_index","time_elapsed","internal_node_id","subject","browser_info","participant_number","rt","responses","view_history","presentation_start_time","id","text","response","keypresses","answer","correct","study","experimenter_rt"
"","call-function","0","2","0.0-0.0","kyoj01zvz64gvue","{""user_agent"":""Mozilla/5.0 (Macintosh; Intel Mac OS X 10_14_4) AppleWebKit/537.36 (KHTML, like Gecko) Chrome/74.0.3729.169 Safari/537.36"",""on_chrome"":true,""on_mobile"":false,""language"":""en-US"",""screen_resolution"":[1440,900],""platform"":""MacIntel"",""timezone"":""Europe/Berlin""}","27","","","","","","","","","","","",""
"","survey-text","1","3601","0.0-1.0","kyoj01zvz64gvue","{""user_agent"":""Mozilla/5.0 (Macintosh; Intel Mac OS X 10_14_4) AppleWebKit/537.36 (KHTML, like Gecko) Chrome/74.0.3729.169 Safari/537.36"",""on_chrome"":true,""on_mobile"":false,""language"":""en-US"",""screen_resolution"":[1440,900],""platform"":""MacIntel"",""timezone"":""Europe/Berlin""}","27","3597","{""Q0"":""27""}","","","","","","","","","",""
"","instructions","2","119603","0.0-2.0","kyoj01zvz64gvue","{""user_agent"":""Mozilla/5.0 (Macintosh; Intel Mac OS X 10_14_4) AppleWebKit/537.36 (KHTML, like Gecko) Chrome/74.0.3729.169 Safari/537.36"",""on_chrome"":true,""on_mobile"":false,""language"":""en-US"",""screen_resolution"":[1440,900],""platform"":""MacIntel"",""timezone"":""Europe/Berlin""}","27","116002","","[{""page_index"":0,""viewing_time"":116002}]","","","","","","","","",""
"","call-function","3","119603","0.0-3.0","kyoj01zvz64gvue","{""user_agent"":""Mozilla/5.0 (Macintosh; Intel Mac OS X 10_14_4) AppleWebKit/537.36 (KHTML, like Gecko) Chrome/74.0.3729.169 Safari/537.36"",""on_chrome"":true,""on_mobile"":false,""language"":""en-US"",""screen_resolution"":[1440,900],""platform"":""MacIntel"",""timezone"":""Europe/Berlin""}","27","","","","","","","","","","","",""
"","html-voicekey-response","4","123505","0.0-4.0-0.0","kyoj01zvz64gvue","{""user_agent"":""Mozilla/5.0 (Macintosh; Intel Mac OS X 10_14_4) AppleWebKit/537.36 (KHTML, like Gecko) Chrome/74.0.3729.169 Safari/537.36"",""on_chrome"":true,""on_mobile"":false,""language"":""en-US"",""screen_resolution"":[1440,900],""platform"":""MacIntel"",""timezone"":""Europe/Berlin""}","27","2297.884999987064","","","1560327081420","1","","Magdeburg","[]","Magdeburg","true","true","3299.8650000081398"
"","html-voicekey-response","5","127738","0.0-4.1-0.1","kyoj01zvz64gvue","{""user_agent"":""Mozilla/5.0 (Macintosh; Intel Mac OS X 10_14_4) AppleWebKit/537.36 (KHTML, like Gecko) Chrome/74.0.3729.169 Safari/537.36"",""on_chrome"":true,""on_mobile"":false,""language"":""en-US"",""screen_resolution"":[1440,900],""platform"":""MacIntel"",""timezone"":""Europe/Berlin""}","27","2838.7900000178256","","","1560327085323","1","","Magdeburg","[]","Magdeburg","true","false","3629.4599999964703"
"","html-voicekey-response","6","130905","0.0-4.2-0.2","kyoj01zvz64gvue","{""user_agent"":""Mozilla/5.0 (Macintosh; Intel Mac OS X 10_14_4) AppleWebKit/537.36 (KHTML, like Gecko) Chrome/74.0.3729.169 Safari/537.36"",""on_chrome"":true,""on_mobile"":false,""language"":""en-US"",""screen_resolution"":[1440,900],""platform"":""MacIntel"",""timezone"":""Europe/Berlin""}","27","1490.169999984419","","","1560327089554","2","","Berlin","[]","Berlin","true","true","2565.554999979213"
"","html-voicekey-response","7","133812","0.0-4.3-0.3","kyoj01zvz64gvue","{""user_agent"":""Mozilla/5.0 (Macintosh; Intel Mac OS X 10_14_4) AppleWebKit/537.36 (KHTML, like Gecko) Chrome/74.0.3729.169 Safari/537.36"",""on_chrome"":true,""on_mobile"":false,""language"":""en-US"",""screen_resolution"":[1440,900],""platform"":""MacIntel"",""timezone"":""Europe/Berlin""}","27","1247.2599999835716","","","1560327092722","2","","Berlin","[]","Berlin","true","false","2305.7449999905657"
"","html-voicekey-response","8","137296","0.0-4.4-0.4","kyoj01zvz64gvue","{""user_agent"":""Mozilla/5.0 (Macintosh; Intel Mac OS X 10_14_4) AppleWebKit/537.36 (KHTML, like Gecko) Chrome/74.0.3729.169 Safari/537.36"",""on_chrome"":true,""on_mobile"":false,""language"":""en-US"",""screen_resolution"":[1440,900],""platform"":""MacIntel"",""timezone"":""Europe/Berlin""}","27","1523.1749999891967","","","1560327095628","3","","Ingolstadt","[]","Ingolstadt","true","true","2881.5250000043306"
"","html-voicekey-response","9","140446","0.0-4.5-0.5","kyoj01zvz64gvue","{""user_agent"":""Mozilla/5.0 (Macintosh; Intel Mac OS X 10_14_4) AppleWebKit/537.36 (KHTML, like Gecko) Chrome/74.0.3729.169 Safari/537.36"",""on_chrome"":true,""on_mobile"":false,""language"":""en-US"",""screen_resolution"":[1440,900],""platform"":""MacIntel"",""timezone"":""Europe/Berlin""}","27","1539.2699999882375","","","1560327099112","4","","Würzburg","[]","Würzburg","true","true","2548.81999999634"
"","html-voicekey-response","10","143619","0.0-4.6-0.6","kyoj01zvz64gvue","{""user_agent"":""Mozilla/5.0 (Macintosh; Intel Mac OS X 10_14_4) AppleWebKit/537.36 (KHTML, like Gecko) Chrome/74.0.3729.169 Safari/537.36"",""on_chrome"":true,""on_mobile"":false,""language"":""en-US"",""screen_resolution"":[1440,900],""platform"":""MacIntel"",""timezone"":""Europe/Berlin""}","27","1472.7050000017975","","","1560327102263","3","","Ingolstadt","[]","Ingolstadt","true","false","2572.0149999833666"
"","html-voicekey-response","11","148019","0.0-4.7-0.7","kyoj01zvz64gvue","{""user_agent"":""Mozilla/5.0 (Macintosh; Intel Mac OS X 10_14_4) AppleWebKit/537.36 (KHTML, like Gecko) Chrome/74.0.3729.169 Safari/537.36"",""on_chrome"":true,""on_mobile"":false,""language"":""en-US"",""screen_resolution"":[1440,900],""platform"":""MacIntel"",""timezone"":""Europe/Berlin""}","27","3073.2949999890757","","","1560327105436","4","","Würzburg","[]","Würzburg","true","false","3798.7799999827985"
"","html-voicekey-response","12","150703","0.0-4.8-0.8","kyoj01zvz64gvue","{""user_agent"":""Mozilla/5.0 (Macintosh; Intel Mac OS X 10_14_4) AppleWebKit/537.36 (KHTML, like Gecko) Chrome/74.0.3729.169 Safari/537.36"",""on_chrome"":true,""on_mobile"":false,""language"":""en-US"",""screen_resolution"":[1440,900],""platform"":""MacIntel"",""timezone"":""Europe/Berlin""}","27","100","","","1560327109836","5","","Aachen","[]","Aachen","true","true","2082.300000009127"
"","html-voicekey-response","13","153944","0.0-4.9-0.9","kyoj01zvz64gvue","{""user_agent"":""Mozilla/5.0 (Macintosh; Intel Mac OS X 10_14_4) AppleWebKit/537.36 (KHTML, like Gecko) Chrome/74.0.3729.169 Safari/537.36"",""on_chrome"":true,""on_mobile"":false,""language"":""en-US"",""screen_resolution"":[1440,900],""platform"":""MacIntel"",""timezone"":""Europe/Berlin""}","27","1204.6099999950734","","","1560327112520","6","","Dresden","[]","Dresden","true","true","2638.325000007171"
"","html-voicekey-response","14","156827","0.0-4.10-0.10","kyoj01zvz64gvue","{""user_agent"":""Mozilla/5.0 (Macintosh; Intel Mac OS X 10_14_4) AppleWebKit/537.36 (KHTML, like Gecko) Chrome/74.0.3729.169 Safari/537.36"",""on_chrome"":true,""on_mobile"":false,""language"":""en-US"",""screen_resolution"":[1440,900],""platform"":""MacIntel"",""timezone"":""Europe/Berlin""}","27","1321.985000025807","","","1560327115760","5","","Aachen","[]","Aachen","true","false","2281.8550000083633"
"","html-voicekey-response","15","159826","0.0-4.11-0.11","kyoj01zvz64gvue","{""user_agent"":""Mozilla/5.0 (Macintosh; Intel Mac OS X 10_14_4) AppleWebKit/537.36 (KHTML, like Gecko) Chrome/74.0.3729.169 Safari/537.36"",""on_chrome"":true,""on_mobile"":false,""language"":""en-US"",""screen_resolution"":[1440,900],""platform"":""MacIntel"",""timezone"":""Europe/Berlin""}","27","1172.4099999790546","","","1560327118644","6","","Dresden","[]","Dresden","true","false","2396.3999999978114"
"","html-voicekey-response","16","162661","0.0-4.12-0.12","kyoj01zvz64gvue","{""user_agent"":""Mozilla/5.0 (Macintosh; Intel Mac OS X 10_14_4) AppleWebKit/537.36 (KHTML, like Gecko) Chrome/74.0.3729.169 Safari/537.36"",""on_chrome"":true,""on_mobile"":false,""language"":""en-US"",""screen_resolution"":[1440,900],""platform"":""MacIntel"",""timezone"":""Europe/Berlin""}","27","1206.460000024736","","","1560327121642","7","","Erfurt","[]","Erfurt","true","true","2232.524999999441"
"","html-voicekey-response","17","165585","0.0-4.13-0.13","kyoj01zvz64gvue","{""user_agent"":""Mozilla/5.0 (Macintosh; Intel Mac OS X 10_14_4) AppleWebKit/537.36 (KHTML, like Gecko) Chrome/74.0.3729.169 Safari/537.36"",""on_chrome"":true,""on_mobile"":false,""language"":""en-US"",""screen_resolution"":[1440,900],""platform"":""MacIntel"",""timezone"":""Europe/Berlin""}","27","1195.6049999951852","","","1560327124478","8","","Gotha","[]","Gotha","true","true","2322.309999988647"
"","html-voicekey-response","18","168135","0.0-4.14-0.14","kyoj01zvz64gvue","{""user_agent"":""Mozilla/5.0 (Macintosh; Intel Mac OS X 10_14_4) AppleWebKit/537.36 (KHTML, like Gecko) Chrome/74.0.3729.169 Safari/537.36"",""on_chrome"":true,""on_mobile"":false,""language"":""en-US"",""screen_resolution"":[1440,900],""platform"":""MacIntel"",""timezone"":""Europe/Berlin""}","27","955.5400000043213","","","1560327127402","7","","Erfurt","[]","Erfurt","true","false","1947.9449999926146"
"","html-voicekey-response","19","170835","0.0-4.15-0.15","kyoj01zvz64gvue","{""user_agent"":""Mozilla/5.0 (Macintosh; Intel Mac OS X 10_14_4) AppleWebKit/537.36 (KHTML, like Gecko) Chrome/74.0.3729.169 Safari/537.36"",""on_chrome"":true,""on_mobile"":false,""language"":""en-US"",""screen_resolution"":[1440,900],""platform"":""MacIntel"",""timezone"":""Europe/Berlin""}","27","1088.9699999914505","","","1560327129952","8","","Gotha","[]","Gotha","true","false","2097.749999986263"
"","html-voicekey-response","20","173670","0.0-4.16-0.16","kyoj01zvz64gvue","{""user_agent"":""Mozilla/5.0 (Macintosh; Intel Mac OS X 10_14_4) AppleWebKit/537.36 (KHTML, like Gecko) Chrome/74.0.3729.169 Safari/537.36"",""on_chrome"":true,""on_mobile"":false,""language"":""en-US"",""screen_resolution"":[1440,900],""platform"":""MacIntel"",""timezone"":""Europe/Berlin""}","27","1156.8300000015647","","","1560327132651","1","","Magdeburg","[]","Magdeburg","true","false","2232.4399999924935"
"","html-voicekey-response","21","176292","0.0-4.17-0.17","kyoj01zvz64gvue","{""user_agent"":""Mozilla/5.0 (Macintosh; Intel Mac OS X 10_14_4) AppleWebKit/537.36 (KHTML, like Gecko) Chrome/74.0.3729.169 Safari/537.36"",""on_chrome"":true,""on_mobile"":false,""language"":""en-US"",""screen_resolution"":[1440,900],""platform"":""MacIntel"",""timezone"":""Europe/Berlin""}","27","1178.1850000059699","","","1560327135487","2","","Berlin","[]","Berlin","true","false","2019.3549999967217"
"","html-voicekey-response","22","179375","0.0-4.18-0.18","kyoj01zvz64gvue","{""user_agent"":""Mozilla/5.0 (Macintosh; Intel Mac OS X 10_14_4) AppleWebKit/537.36 (KHTML, like Gecko) Chrome/74.0.3729.169 Safari/537.36"",""on_chrome"":true,""on_mobile"":false,""language"":""en-US"",""screen_resolution"":[1440,900],""platform"":""MacIntel"",""timezone"":""Europe/Berlin""}","27","1139.7499999819324","","","1560327138109","9","","München","[]","München","true","true","2481.2699999893084"
"","html-voicekey-response","23","182724","0.0-4.19-0.19","kyoj01zvz64gvue","{""user_agent"":""Mozilla/5.0 (Macintosh; Intel Mac OS X 10_14_4) AppleWebKit/537.36 (KHTML, like Gecko) Chrome/74.0.3729.169 Safari/537.36"",""on_chrome"":true,""on_mobile"":false,""language"":""en-US"",""screen_resolution"":[1440,900],""platform"":""MacIntel"",""timezone"":""Europe/Berlin""}","27","1239.910000012815","","","1560327141192","10","","Heidelberg","[]","Heidelberg","true","true","2747.60500001139"
"","html-voicekey-response","24","185848","0.0-4.20-0.20","kyoj01zvz64gvue","{""user_agent"":""Mozilla/5.0 (Macintosh; Intel Mac OS X 10_14_4) AppleWebKit/537.36 (KHTML, like Gecko) Chrome/74.0.3729.169 Safari/537.36"",""on_chrome"":true,""on_mobile"":false,""language"":""en-US"",""screen_resolution"":[1440,900],""platform"":""MacIntel"",""timezone"":""Europe/Berlin""}","27","1464.0949999828358","","","1560327144541","9","","München","[]","München","true","false","2521.760000003269"
"","html-voicekey-response","25","188849","0.0-4.21-0.21","kyoj01zvz64gvue","{""user_agent"":""Mozilla/5.0 (Macintosh; Intel Mac OS X 10_14_4) AppleWebKit/537.36 (KHTML, like Gecko) Chrome/74.0.3729.169 Safari/537.36"",""on_chrome"":true,""on_mobile"":false,""language"":""en-US"",""screen_resolution"":[1440,900],""platform"":""MacIntel"",""timezone"":""Europe/Berlin""}","27","1023.5750000081956","","","1560327147665","10","","Heidelberg","[]","Heidelberg","true","false","2398.7900000065565"
"","html-voicekey-response","26","196765","0.0-4.22-0.22","kyoj01zvz64gvue","{""user_agent"":""Mozilla/5.0 (Macintosh; Intel Mac OS X 10_14_4) AppleWebKit/537.36 (KHTML, like Gecko) Chrome/74.0.3729.169 Safari/537.36"",""on_chrome"":true,""on_mobile"":false,""language"":""en-US"",""screen_resolution"":[1440,900],""platform"":""MacIntel"",""timezone"":""Europe/Berlin""}","27","3006.740000020573","","","1560327150665","3","","","[]","Ingolstadt","false","false","3915.0300000037532"
"","html-voicekey-response","27","201156","0.0-4.23-0.23","kyoj01zvz64gvue","{""user_agent"":""Mozilla/5.0 (Macintosh; Intel Mac OS X 10_14_4) AppleWebKit/537.36 (KHTML, like Gecko) Chrome/74.0.3729.169 Safari/537.36"",""on_chrome"":true,""on_mobile"":false,""language"":""en-US"",""screen_resolution"":[1440,900],""platform"":""MacIntel"",""timezone"":""Europe/Berlin""}","27","180.559999987809","","","1560327158583","4","","Würzburg","[]","Würzburg","true","false","3788.7700000137556"
"","html-voicekey-response","28","210489","0.0-4.24-0.24","kyoj01zvz64gvue","{""user_agent"":""Mozilla/5.0 (Macintosh; Intel Mac OS X 10_14_4) AppleWebKit/537.36 (KHTML, like Gecko) Chrome/74.0.3729.169 Safari/537.36"",""on_chrome"":true,""on_mobile"":false,""language"":""en-US"",""screen_resolution"":[1440,900],""platform"":""MacIntel"",""timezone"":""Europe/Berlin""}","27","4555.32500000284","","","1560327162973","5","","","[]","Aachen","false","false","5331.435000000056"
"","html-voicekey-response","29","213584","0.0-4.25-0.25","kyoj01zvz64gvue","{""user_agent"":""Mozilla/5.0 (Macintosh; Intel Mac OS X 10_14_4) AppleWebKit/537.36 (KHTML, like Gecko) Chrome/74.0.3729.169 Safari/537.36"",""on_chrome"":true,""on_mobile"":false,""language"":""en-US"",""screen_resolution"":[1440,900],""platform"":""MacIntel"",""timezone"":""Europe/Berlin""}","27","1383.7300000103191","","","1560327172306","6","","Dresden","[]","Dresden","true","false","2492.550000024494"
"","html-voicekey-response","30","216735","0.0-4.26-0.26","kyoj01zvz64gvue","{""user_agent"":""Mozilla/5.0 (Macintosh; Intel Mac OS X 10_14_4) AppleWebKit/537.36 (KHTML, like Gecko) Chrome/74.0.3729.169 Safari/537.36"",""on_chrome"":true,""on_mobile"":false,""language"":""en-US"",""screen_resolution"":[1440,900],""platform"":""MacIntel"",""timezone"":""Europe/Berlin""}","27","1721.9050000220072","","","1560327175401","7","","Erfurt","[]","Erfurt","true","false","2548.450000002049"
"","html-voicekey-response","31","225124","0.0-4.27-0.27","kyoj01zvz64gvue","{""user_agent"":""Mozilla/5.0 (Macintosh; Intel Mac OS X 10_14_4) AppleWebKit/537.36 (KHTML, like Gecko) Chrome/74.0.3729.169 Safari/537.36"",""on_chrome"":true,""on_mobile"":false,""language"":""en-US"",""screen_resolution"":[1440,900],""platform"":""MacIntel"",""timezone"":""Europe/Berlin""}","27","2996.365000008","","","1560327178552","8","","","[]","Gotha","false","false","4386.900000012247"
"","html-voicekey-response","32","228490","0.0-4.28-0.28","kyoj01zvz64gvue","{""user_agent"":""Mozilla/5.0 (Macintosh; Intel Mac OS X 10_14_4) AppleWebKit/537.36 (KHTML, like Gecko) Chrome/74.0.3729.169 Safari/537.36"",""on_chrome"":true,""on_mobile"":false,""language"":""en-US"",""screen_resolution"":[1440,900],""platform"":""MacIntel"",""timezone"":""Europe/Berlin""}","27","1521.7849999988453","","","1560327186942","11","","Alfeld","[]","Alfeld","true","true","2762.9200000083074"
"","html-voicekey-response","33","231766","0.0-4.29-0.29","kyoj01zvz64gvue","{""user_agent"":""Mozilla/5.0 (Macintosh; Intel Mac OS X 10_14_4) AppleWebKit/537.36 (KHTML, like Gecko) Chrome/74.0.3729.169 Safari/537.36"",""on_chrome"":true,""on_mobile"":false,""language"":""en-US"",""screen_resolution"":[1440,900],""platform"":""MacIntel"",""timezone"":""Europe/Berlin""}","27","1499.0250000062865","","","1560327190307","9","","München","[]","München","true","false","2673.5200000111945"
"","html-voicekey-response","34","235017","0.0-4.30-0.30","kyoj01zvz64gvue","{""user_agent"":""Mozilla/5.0 (Macintosh; Intel Mac OS X 10_14_4) AppleWebKit/537.36 (KHTML, like Gecko) Chrome/74.0.3729.169 Safari/537.36"",""on_chrome"":true,""on_mobile"":false,""language"":""en-US"",""screen_resolution"":[1440,900],""platform"":""MacIntel"",""timezone"":""Europe/Berlin""}","27","1390.1550000099","","","1560327193583","11","","Alfeld","[]","Alfeld","true","false","2649.3199999968056"
"","html-voicekey-response","35","239335","0.0-4.31-0.31","kyoj01zvz64gvue","{""user_agent"":""Mozilla/5.0 (Macintosh; Intel Mac OS X 10_14_4) AppleWebKit/537.36 (KHTML, like Gecko) Chrome/74.0.3729.169 Safari/537.36"",""on_chrome"":true,""on_mobile"":false,""language"":""en-US"",""screen_resolution"":[1440,900],""platform"":""MacIntel"",""timezone"":""Europe/Berlin""}","27","2520.7249999892433","","","1560327196834","3","","Ingolstadt","[]","Ingolstadt","true","false","3713.5699999926146"
"","html-voicekey-response","36","246391","0.0-4.32-0.32","kyoj01zvz64gvue","{""user_agent"":""Mozilla/5.0 (Macintosh; Intel Mac OS X 10_14_4) AppleWebKit/537.36 (KHTML, like Gecko) Chrome/74.0.3729.169 Safari/537.36"",""on_chrome"":true,""on_mobile"":false,""language"":""en-US"",""screen_resolution"":[1440,900],""platform"":""MacIntel"",""timezone"":""Europe/Berlin""}","27","1409.9049999875483","","","1560327201153","10","","","[]","Heidelberg","false","false","3052.724999986822"
"","html-voicekey-response","37","254232","0.0-4.33-0.33","kyoj01zvz64gvue","{""user_agent"":""Mozilla/5.0 (Macintosh; Intel Mac OS X 10_14_4) AppleWebKit/537.36 (KHTML, like Gecko) Chrome/74.0.3729.169 Safari/537.36"",""on_chrome"":true,""on_mobile"":false,""language"":""en-US"",""screen_resolution"":[1440,900],""platform"":""MacIntel"",""timezone"":""Europe/Berlin""}","27","2587.6249999945053","","","1560327208209","5","","","[]","Aachen","false","false","3837.86999998847"
"","html-voicekey-response","38","257198","0.0-4.34-0.34","kyoj01zvz64gvue","{""user_agent"":""Mozilla/5.0 (Macintosh; Intel Mac OS X 10_14_4) AppleWebKit/537.36 (KHTML, like Gecko) Chrome/74.0.3729.169 Safari/537.36"",""on_chrome"":true,""on_mobile"":false,""language"":""en-US"",""screen_resolution"":[1440,900],""platform"":""MacIntel"",""timezone"":""Europe/Berlin""}","27","1405.9450000148267","","","1560327216049","12","","Dessau","[]","Dessau","true","true","2364.6149999985937"
"","html-voicekey-response","39","266783","0.0-4.35-0.35","kyoj01zvz64gvue","{""user_agent"":""Mozilla/5.0 (Macintosh; Intel Mac OS X 10_14_4) AppleWebKit/537.36 (KHTML, like Gecko) Chrome/74.0.3729.169 Safari/537.36"",""on_chrome"":true,""on_mobile"":false,""language"":""en-US"",""screen_resolution"":[1440,900],""platform"":""MacIntel"",""timezone"":""Europe/Berlin""}","27","4088.655000008503","","","1560327219016","8","","","[]","Gotha","false","false","5580.420000012964"
"","html-voicekey-response","40","270525","0.0-4.36-0.36","kyoj01zvz64gvue","{""user_agent"":""Mozilla/5.0 (Macintosh; Intel Mac OS X 10_14_4) AppleWebKit/537.36 (KHTML, like Gecko) Chrome/74.0.3729.169 Safari/537.36"",""on_chrome"":true,""on_mobile"":false,""language"":""en-US"",""screen_resolution"":[1440,900],""platform"":""MacIntel"",""timezone"":""Europe/Berlin""}","27","2148.1749999891967","","","1560327228600","12","","Dessau","[]","Dessau","true","false","3140.0549999962095"
"","html-voicekey-response","41","274543","0.0-4.37-0.37","kyoj01zvz64gvue","{""user_agent"":""Mozilla/5.0 (Macintosh; Intel Mac OS X 10_14_4) AppleWebKit/537.36 (KHTML, like Gecko) Chrome/74.0.3729.169 Safari/537.36"",""on_chrome"":true,""on_mobile"":false,""language"":""en-US"",""screen_resolution"":[1440,900],""platform"":""MacIntel"",""timezone"":""Europe/Berlin""}","27","1472.2550000095275","","","1560327232342","13","","Chemnitz","[]","Chemnitz","true","true","3413.8099999981932"
"","html-voicekey-response","42","280348","0.0-4.38-0.38","kyoj01zvz64gvue","{""user_agent"":""Mozilla/5.0 (Macintosh; Intel Mac OS X 10_14_4) AppleWebKit/537.36 (KHTML, like Gecko) Chrome/74.0.3729.169 Safari/537.36"",""on_chrome"":true,""on_mobile"":false,""language"":""en-US"",""screen_resolution"":[1440,900],""platform"":""MacIntel"",""timezone"":""Europe/Berlin""}","27","4445.389999987883","","","1560327236360","5","","Aachen","[]","Aachen","true","false","5202.8449999925215"
"","html-voicekey-response","43","285382","0.0-4.39-0.39","kyoj01zvz64gvue","{""user_agent"":""Mozilla/5.0 (Macintosh; Intel Mac OS X 10_14_4) AppleWebKit/537.36 (KHTML, like Gecko) Chrome/74.0.3729.169 Safari/537.36"",""on_chrome"":true,""on_mobile"":false,""language"":""en-US"",""screen_resolution"":[1440,900],""platform"":""MacIntel"",""timezone"":""Europe/Berlin""}","27","3089.2749999855646","","","1560327242166","13","","Chemnitz","[]","Chemnitz","true","false","4430.22499998915"
"","html-voicekey-response","44","296355","0.0-4.40-0.40","kyoj01zvz64gvue","{""user_agent"":""Mozilla/5.0 (Macintosh; Intel Mac OS X 10_14_4) AppleWebKit/537.36 (KHTML, like Gecko) Chrome/74.0.3729.169 Safari/537.36"",""on_chrome"":true,""on_mobile"":false,""language"":""en-US"",""screen_resolution"":[1440,900],""platform"":""MacIntel"",""timezone"":""Europe/Berlin""}","27","2362.7000000067987","","","1560327247199","11","","","[]","Alfeld","false","false","6971.129999990808"
"","html-voicekey-response","45","304282","0.0-4.41-0.41","kyoj01zvz64gvue","{""user_agent"":""Mozilla/5.0 (Macintosh; Intel Mac OS X 10_14_4) AppleWebKit/537.36 (KHTML, like Gecko) Chrome/74.0.3729.169 Safari/537.36"",""on_chrome"":true,""on_mobile"":false,""language"":""en-US"",""screen_resolution"":[1440,900],""platform"":""MacIntel"",""timezone"":""Europe/Berlin""}","27","2256.325000003772","","","1560327258173","10","","","[]","Heidelberg","false","false","3924.1449999972247"
"","html-voicekey-response","46","308982","0.0-4.42-0.42","kyoj01zvz64gvue","{""user_agent"":""Mozilla/5.0 (Macintosh; Intel Mac OS X 10_14_4) AppleWebKit/537.36 (KHTML, like Gecko) Chrome/74.0.3729.169 Safari/537.36"",""on_chrome"":true,""on_mobile"":false,""language"":""en-US"",""screen_resolution"":[1440,900],""platform"":""MacIntel"",""timezone"":""Europe/Berlin""}","27","2220.4850000069478","","","1560327266101","8","","Gotha","[]","Gotha","true","false","4096.250000002328"
"","html-voicekey-response","47","312840","0.0-4.43-0.43","kyoj01zvz64gvue","{""user_agent"":""Mozilla/5.0 (Macintosh; Intel Mac OS X 10_14_4) AppleWebKit/537.36 (KHTML, like Gecko) Chrome/74.0.3729.169 Safari/537.36"",""on_chrome"":true,""on_mobile"":false,""language"":""en-US"",""screen_resolution"":[1440,900],""platform"":""MacIntel"",""timezone"":""Europe/Berlin""}","27","2562.644999977993","","","1560327270801","5","","Aachen","[]","Aachen","true","false","3255.154999991646"
"","html-voicekey-response","48","323642","0.0-4.44-0.44","kyoj01zvz64gvue","{""user_agent"":""Mozilla/5.0 (Macintosh; Intel Mac OS X 10_14_4) AppleWebKit/537.36 (KHTML, like Gecko) Chrome/74.0.3729.169 Safari/537.36"",""on_chrome"":true,""on_mobile"":false,""language"":""en-US"",""screen_resolution"":[1440,900],""platform"":""MacIntel"",""timezone"":""Europe/Berlin""}","27","5905.2849999951195","","","1560327274658","3","","","[]","Ingolstadt","false","false","6797.744999988936"
"","html-voicekey-response","49","326498","0.0-4.45-0.45","kyoj01zvz64gvue","{""user_agent"":""Mozilla/5.0 (Macintosh; Intel Mac OS X 10_14_4) AppleWebKit/537.36 (KHTML, like Gecko) Chrome/74.0.3729.169 Safari/537.36"",""on_chrome"":true,""on_mobile"":false,""language"":""en-US"",""screen_resolution"":[1440,900],""platform"":""MacIntel"",""timezone"":""Europe/Berlin""}","27","1409.9850000146312","","","1560327285461","12","","Dessau","[]","Dessau","true","false","2251.510000001872"
"","html-voicekey-response","50","334248","0.0-4.46-0.46","kyoj01zvz64gvue","{""user_agent"":""Mozilla/5.0 (Macintosh; Intel Mac OS X 10_14_4) AppleWebKit/537.36 (KHTML, like Gecko) Chrome/74.0.3729.169 Safari/537.36"",""on_chrome"":true,""on_mobile"":false,""language"":""en-US"",""screen_resolution"":[1440,900],""platform"":""MacIntel"",""timezone"":""Europe/Berlin""}","27","2304.499999978207","","","1560327288315","10","","","[]","Heidelberg","false","false","3746.929999993881"
"","html-voicekey-response","51","342854","0.0-4.47-0.47","kyoj01zvz64gvue","{""user_agent"":""Mozilla/5.0 (Macintosh; Intel Mac OS X 10_14_4) AppleWebKit/537.36 (KHTML, like Gecko) Chrome/74.0.3729.169 Safari/537.36"",""on_chrome"":true,""on_mobile"":false,""language"":""en-US"",""screen_resolution"":[1440,900],""platform"":""MacIntel"",""timezone"":""Europe/Berlin""}","27","177.17499999874272","","","1560327296067","11","","","[]","Alfeld","false","false","4603.039999987232"
"","html-voicekey-response","52","349883","0.0-4.48-0.48","kyoj01zvz64gvue","{""user_agent"":""Mozilla/5.0 (Macintosh; Intel Mac OS X 10_14_4) AppleWebKit/537.36 (KHTML, like Gecko) Chrome/74.0.3729.169 Safari/537.36"",""on_chrome"":true,""on_mobile"":false,""language"":""en-US"",""screen_resolution"":[1440,900],""platform"":""MacIntel"",""timezone"":""Europe/Berlin""}","27","1589.1549999740441","","","1560327304672","3","","","[]","Ingolstadt","false","false","3025.8949999988545"
"","html-voicekey-response","53","353782","0.0-4.49-0.49","kyoj01zvz64gvue","{""user_agent"":""Mozilla/5.0 (Macintosh; Intel Mac OS X 10_14_4) AppleWebKit/537.36 (KHTML, like Gecko) Chrome/74.0.3729.169 Safari/537.36"",""on_chrome"":true,""on_mobile"":false,""language"":""en-US"",""screen_resolution"":[1440,900],""platform"":""MacIntel"",""timezone"":""Europe/Berlin""}","27","2205.7799999982585","","","1560327311700","13","","Chemnitz","[]","Chemnitz","true","false","3297.87499998929"
"","html-voicekey-response","54","357757","0.0-4.50-0.50","kyoj01zvz64gvue","{""user_agent"":""Mozilla/5.0 (Macintosh; Intel Mac OS X 10_14_4) AppleWebKit/537.36 (KHTML, like Gecko) Chrome/74.0.3729.169 Safari/537.36"",""on_chrome"":true,""on_mobile"":false,""language"":""en-US"",""screen_resolution"":[1440,900],""platform"":""MacIntel"",""timezone"":""Europe/Berlin""}","27","2446.2600000059233","","","1560327315600","5","","Aachen","[]","Aachen","true","false","3371.5850000153296"
"","html-voicekey-response","55","361690","0.0-4.51-0.51","kyoj01zvz64gvue","{""user_agent"":""Mozilla/5.0 (Macintosh; Intel Mac OS X 10_14_4) AppleWebKit/537.36 (KHTML, like Gecko) Chrome/74.0.3729.169 Safari/537.36"",""on_chrome"":true,""on_mobile"":false,""language"":""en-US"",""screen_resolution"":[1440,900],""platform"":""MacIntel"",""timezone"":""Europe/Berlin""}","27","2172.804999989085","","","1560327319574","10","","Heidelberg","[]","Heidelberg","true","false","3331.0850000125356"
"","html-voicekey-response","56","364257","0.0-4.52-0.52","kyoj01zvz64gvue","{""user_agent"":""Mozilla/5.0 (Macintosh; Intel Mac OS X 10_14_4) AppleWebKit/537.36 (KHTML, like Gecko) Chrome/74.0.3729.169 Safari/537.36"",""on_chrome"":true,""on_mobile"":false,""language"":""en-US"",""screen_resolution"":[1440,900],""platform"":""MacIntel"",""timezone"":""Europe/Berlin""}","27","1239.91499999268","","","1560327323507","8","","Gotha","[]","Gotha","true","false","1965.4149999842048"
"","html-voicekey-response","57","368181","0.0-4.53-0.53","kyoj01zvz64gvue","{""user_agent"":""Mozilla/5.0 (Macintosh; Intel Mac OS X 10_14_4) AppleWebKit/537.36 (KHTML, like Gecko) Chrome/74.0.3729.169 Safari/537.36"",""on_chrome"":true,""on_mobile"":false,""language"":""en-US"",""screen_resolution"":[1440,900],""platform"":""MacIntel"",""timezone"":""Europe/Berlin""}","27","2396.16499999268","","","1560327326074","11","","Alfeld","[]","Alfeld","true","false","3322.5899999961257"
"","html-voicekey-response","58","371397","0.0-4.54-0.54","kyoj01zvz64gvue","{""user_agent"":""Mozilla/5.0 (Macintosh; Intel Mac OS X 10_14_4) AppleWebKit/537.36 (KHTML, like Gecko) Chrome/74.0.3729.169 Safari/537.36"",""on_chrome"":true,""on_mobile"":false,""language"":""en-US"",""screen_resolution"":[1440,900],""platform"":""MacIntel"",""timezone"":""Europe/Berlin""}","27","1371.5900000041352","","","1560327329999","14","","Potsdam","[]","Potsdam","true","true","2613.48500000895"
"","html-voicekey-response","59","374414","0.0-4.55-0.55","kyoj01zvz64gvue","{""user_agent"":""Mozilla/5.0 (Macintosh; Intel Mac OS X 10_14_4) AppleWebKit/537.36 (KHTML, like Gecko) Chrome/74.0.3729.169 Safari/537.36"",""on_chrome"":true,""on_mobile"":false,""language"":""en-US"",""screen_resolution"":[1440,900],""platform"":""MacIntel"",""timezone"":""Europe/Berlin""}","27","1305.7750000242145","","","1560327333215","15","","Nürnberg","[]","Nürnberg","true","true","2413.9200000208803"
"","html-voicekey-response","60","377272","0.0-4.56-0.56","kyoj01zvz64gvue","{""user_agent"":""Mozilla/5.0 (Macintosh; Intel Mac OS X 10_14_4) AppleWebKit/537.36 (KHTML, like Gecko) Chrome/74.0.3729.169 Safari/537.36"",""on_chrome"":true,""on_mobile"":false,""language"":""en-US"",""screen_resolution"":[1440,900],""platform"":""MacIntel"",""timezone"":""Europe/Berlin""}","27","1146.645000009658","","","1560327336231","14","","Potsdam","[]","Potsdam","true","false","2256.040000007488"
"","html-voicekey-response","61","380156","0.0-4.57-0.57","kyoj01zvz64gvue","{""user_agent"":""Mozilla/5.0 (Macintosh; Intel Mac OS X 10_14_4) AppleWebKit/537.36 (KHTML, like Gecko) Chrome/74.0.3729.169 Safari/537.36"",""on_chrome"":true,""on_mobile"":false,""language"":""en-US"",""screen_resolution"":[1440,900],""platform"":""MacIntel"",""timezone"":""Europe/Berlin""}","27","1090.264999986021","","","1560327339089","15","","Nürnberg","[]","Nürnberg","true","false","2281.9149999995716"
"","html-voicekey-response","62","387155","0.0-4.58-0.58","kyoj01zvz64gvue","{""user_agent"":""Mozilla/5.0 (Macintosh; Intel Mac OS X 10_14_4) AppleWebKit/537.36 (KHTML, like Gecko) Chrome/74.0.3729.169 Safari/537.36"",""on_chrome"":true,""on_mobile"":false,""language"":""en-US"",""screen_resolution"":[1440,900],""platform"":""MacIntel"",""timezone"":""Europe/Berlin""}","27","1954.9649999915623","","","1560327341973","3","","","[]","Ingolstadt","false","false","2997.094999998808"
"","html-voicekey-response","63","391190","0.0-4.59-0.59","kyoj01zvz64gvue","{""user_agent"":""Mozilla/5.0 (Macintosh; Intel Mac OS X 10_14_4) AppleWebKit/537.36 (KHTML, like Gecko) Chrome/74.0.3729.169 Safari/537.36"",""on_chrome"":true,""on_mobile"":false,""language"":""en-US"",""screen_resolution"":[1440,900],""platform"":""MacIntel"",""timezone"":""Europe/Berlin""}","27","100","","","1560327348972","16","","Schwangau","[]","Schwangau","true","true","3431.4749999903142"
"","html-voicekey-response","64","394281","0.0-4.60-0.60","kyoj01zvz64gvue","{""user_agent"":""Mozilla/5.0 (Macintosh; Intel Mac OS X 10_14_4) AppleWebKit/537.36 (KHTML, like Gecko) Chrome/74.0.3729.169 Safari/537.36"",""on_chrome"":true,""on_mobile"":false,""language"":""en-US"",""screen_resolution"":[1440,900],""platform"":""MacIntel"",""timezone"":""Europe/Berlin""}","27","1162.555000026105","","","1560327353008","17","","Leipzig","[]","Leipzig","true","true","2488.4750000201166"
"","html-voicekey-response","65","398230","0.0-4.61-0.61","kyoj01zvz64gvue","{""user_agent"":""Mozilla/5.0 (Macintosh; Intel Mac OS X 10_14_4) AppleWebKit/537.36 (KHTML, like Gecko) Chrome/74.0.3729.169 Safari/537.36"",""on_chrome"":true,""on_mobile"":false,""language"":""en-US"",""screen_resolution"":[1440,900],""platform"":""MacIntel"",""timezone"":""Europe/Berlin""}","27","2089.2250000122935","","","1560327356098","16","","Schwangau","[]","Schwangau","true","false","3347.074999997858"
"","html-voicekey-response","66","401888","0.0-4.62-0.62","kyoj01zvz64gvue","{""user_agent"":""Mozilla/5.0 (Macintosh; Intel Mac OS X 10_14_4) AppleWebKit/537.36 (KHTML, like Gecko) Chrome/74.0.3729.169 Safari/537.36"",""on_chrome"":true,""on_mobile"":false,""language"":""en-US"",""screen_resolution"":[1440,900],""platform"":""MacIntel"",""timezone"":""Europe/Berlin""}","27","1529.6799999867567","","","1560327360049","17","","Leipzig","[]","Leipzig","true","false","3054.7800000058487"
"","html-voicekey-response","67","409906","0.0-4.63-0.63","kyoj01zvz64gvue","{""user_agent"":""Mozilla/5.0 (Macintosh; Intel Mac OS X 10_14_4) AppleWebKit/537.36 (KHTML, like Gecko) Chrome/74.0.3729.169 Safari/537.36"",""on_chrome"":true,""on_mobile"":false,""language"":""en-US"",""screen_resolution"":[1440,900],""platform"":""MacIntel"",""timezone"":""Europe/Berlin""}","27","3255.3200000055135","","","1560327363705","5","","","[]","Aachen","false","false","4015.3249999857508"
"","html-voicekey-response","68","413947","0.0-4.64-0.64","kyoj01zvz64gvue","{""user_agent"":""Mozilla/5.0 (Macintosh; Intel Mac OS X 10_14_4) AppleWebKit/537.36 (KHTML, like Gecko) Chrome/74.0.3729.169 Safari/537.36"",""on_chrome"":true,""on_mobile"":false,""language"":""en-US"",""screen_resolution"":[1440,900],""platform"":""MacIntel"",""timezone"":""Europe/Berlin""}","27","2154.0699999985286","","","1560327371723","11","","Alfeld","[]","Alfeld","true","false","3438.605000003008"
"","html-voicekey-response","69","418163","0.0-4.65-0.65","kyoj01zvz64gvue","{""user_agent"":""Mozilla/5.0 (Macintosh; Intel Mac OS X 10_14_4) AppleWebKit/537.36 (KHTML, like Gecko) Chrome/74.0.3729.169 Safari/537.36"",""on_chrome"":true,""on_mobile"":false,""language"":""en-US"",""screen_resolution"":[1440,900],""platform"":""MacIntel"",""timezone"":""Europe/Berlin""}","27","1637.5750000095927","","","1560327375765","18","","Forchheim","[]","Forchheim","true","true","3613.790000003064"
"","html-voicekey-response","70","423581","0.0-4.66-0.66","kyoj01zvz64gvue","{""user_agent"":""Mozilla/5.0 (Macintosh; Intel Mac OS X 10_14_4) AppleWebKit/537.36 (KHTML, like Gecko) Chrome/74.0.3729.169 Safari/537.36"",""on_chrome"":true,""on_mobile"":false,""language"":""en-US"",""screen_resolution"":[1440,900],""platform"":""MacIntel"",""timezone"":""Europe/Berlin""}","27","3872.730000011716","","","1560327379980","10","","Heidelberg","[]","Heidelberg","true","false","4814.899999997579"
"","html-voicekey-response","71","430554","0.0-4.67-0.67","kyoj01zvz64gvue","{""user_agent"":""Mozilla/5.0 (Macintosh; Intel Mac OS X 10_14_4) AppleWebKit/537.36 (KHTML, like Gecko) Chrome/74.0.3729.169 Safari/537.36"",""on_chrome"":true,""on_mobile"":false,""language"":""en-US"",""screen_resolution"":[1440,900],""platform"":""MacIntel"",""timezone"":""Europe/Berlin""}","27","1961.4350000136533","","","1560327385399","18","","","[]","Forchheim","false","false","2970.770000014454"
"","html-voicekey-response","72","433270","0.0-4.68-0.68","kyoj01zvz64gvue","{""user_agent"":""Mozilla/5.0 (Macintosh; Intel Mac OS X 10_14_4) AppleWebKit/537.36 (KHTML, like Gecko) Chrome/74.0.3729.169 Safari/537.36"",""on_chrome"":true,""on_mobile"":false,""language"":""en-US"",""screen_resolution"":[1440,900],""platform"":""MacIntel"",""timezone"":""Europe/Berlin""}","27","1204.9950000162703","","","1560327392372","14","","Potsdam","[]","Potsdam","true","false","2112.88999998942"
"","html-voicekey-response","73","441397","0.0-4.69-0.69","kyoj01zvz64gvue","{""user_agent"":""Mozilla/5.0 (Macintosh; Intel Mac OS X 10_14_4) AppleWebKit/537.36 (KHTML, like Gecko) Chrome/74.0.3729.169 Safari/537.36"",""on_chrome"":true,""on_mobile"":false,""language"":""en-US"",""screen_resolution"":[1440,900],""platform"":""MacIntel"",""timezone"":""Europe/Berlin""}","27","2848.775000000233","","","1560327395087","15","","","[]","Nürnberg","false","false","4124.104999995325"
"","html-voicekey-response","74","448664","0.0-4.70-0.70","kyoj01zvz64gvue","{""user_agent"":""Mozilla/5.0 (Macintosh; Intel Mac OS X 10_14_4) AppleWebKit/537.36 (KHTML, like Gecko) Chrome/74.0.3729.169 Safari/537.36"",""on_chrome"":true,""on_mobile"":false,""language"":""en-US"",""screen_resolution"":[1440,900],""platform"":""MacIntel"",""timezone"":""Europe/Berlin""}","27","1870.7549999906682","","","1560327403214","3","","","[]","Ingolstadt","false","false","3263.504999980796"
"","html-voicekey-response","75","459869","0.0-4.71-0.71","kyoj01zvz64gvue","{""user_agent"":""Mozilla/5.0 (Macintosh; Intel Mac OS X 10_14_4) AppleWebKit/537.36 (KHTML, like Gecko) Chrome/74.0.3729.169 Safari/537.36"",""on_chrome"":true,""on_mobile"":false,""language"":""en-US"",""screen_resolution"":[1440,900],""platform"":""MacIntel"",""timezone"":""Europe/Berlin""}","27","100","","","1560327410481","16","","","[]","Schwangau","false","false","7202.515000011772"
"","html-voicekey-response","76","463230","0.0-4.72-0.72","kyoj01zvz64gvue","{""user_agent"":""Mozilla/5.0 (Macintosh; Intel Mac OS X 10_14_4) AppleWebKit/537.36 (KHTML, like Gecko) Chrome/74.0.3729.169 Safari/537.36"",""on_chrome"":true,""on_mobile"":false,""language"":""en-US"",""screen_resolution"":[1440,900],""platform"":""MacIntel"",""timezone"":""Europe/Berlin""}","27","1616.8149999956136","","","1560327421686","17","","Leipzig","[]","Leipzig","true","false","2758.6000000010245"
"","html-voicekey-response","77","470464","0.0-4.73-0.73","kyoj01zvz64gvue","{""user_agent"":""Mozilla/5.0 (Macintosh; Intel Mac OS X 10_14_4) AppleWebKit/537.36 (KHTML, like Gecko) Chrome/74.0.3729.169 Safari/537.36"",""on_chrome"":true,""on_mobile"":false,""language"":""en-US"",""screen_resolution"":[1440,900],""platform"":""MacIntel"",""timezone"":""Europe/Berlin""}","27","1756.3799999860116","","","1560327425047","3","","","[]","Ingolstadt","false","false","3231.644999992568"
"","html-voicekey-response","78","479571","0.0-4.74-0.74","kyoj01zvz64gvue","{""user_agent"":""Mozilla/5.0 (Macintosh; Intel Mac OS X 10_14_4) AppleWebKit/537.36 (KHTML, like Gecko) Chrome/74.0.3729.169 Safari/537.36"",""on_chrome"":true,""on_mobile"":false,""language"":""en-US"",""screen_resolution"":[1440,900],""platform"":""MacIntel"",""timezone"":""Europe/Berlin""}","27","196.16499998103828","","","1560327432282","5","","","[]","Aachen","false","false","5104.655000002822"
"","html-voicekey-response","79","485166","0.0-4.75-0.75","kyoj01zvz64gvue","{""user_agent"":""Mozilla/5.0 (Macintosh; Intel Mac OS X 10_14_4) AppleWebKit/537.36 (KHTML, like Gecko) Chrome/74.0.3729.169 Safari/537.36"",""on_chrome"":true,""on_mobile"":false,""language"":""en-US"",""screen_resolution"":[1440,900],""platform"":""MacIntel"",""timezone"":""Europe/Berlin""}","27","4004.5049999988173","","","1560327441389","3","","Ingolstadt","[]","Ingolstadt","true","false","4992.519999999786"
"","html-voicekey-response","80","489049","0.0-4.76-0.76","kyoj01zvz64gvue","{""user_agent"":""Mozilla/5.0 (Macintosh; Intel Mac OS X 10_14_4) AppleWebKit/537.36 (KHTML, like Gecko) Chrome/74.0.3729.169 Safari/537.36"",""on_chrome"":true,""on_mobile"":false,""language"":""en-US"",""screen_resolution"":[1440,900],""platform"":""MacIntel"",""timezone"":""Europe/Berlin""}","27","2187.864999994263","","","1560327446984","10","","Heidelberg","[]","Heidelberg","true","false","3280.9199999901466"
"","html-voicekey-response","81","492334","0.0-4.77-0.77","kyoj01zvz64gvue","{""user_agent"":""Mozilla/5.0 (Macintosh; Intel Mac OS X 10_14_4) AppleWebKit/537.36 (KHTML, like Gecko) Chrome/74.0.3729.169 Safari/537.36"",""on_chrome"":true,""on_mobile"":false,""language"":""en-US"",""screen_resolution"":[1440,900],""platform"":""MacIntel"",""timezone"":""Europe/Berlin""}","27","1905.45999998888","","","1560327450867","5","","Aachen","[]","Aachen","true","false","2680.0550000043586"
"","html-voicekey-response","82","500290","0.0-4.78-0.78","kyoj01zvz64gvue","{""user_agent"":""Mozilla/5.0 (Macintosh; Intel Mac OS X 10_14_4) AppleWebKit/537.36 (KHTML, like Gecko) Chrome/74.0.3729.169 Safari/537.36"",""on_chrome"":true,""on_mobile"":false,""language"":""en-US"",""screen_resolution"":[1440,900],""platform"":""MacIntel"",""timezone"":""Europe/Berlin""}","27","2609.3549999730662","","","1560327454153","15","","","[]","Nürnberg","false","false","3952.159999986179"
"","html-voicekey-response","83","507156","0.0-4.79-0.79","kyoj01zvz64gvue","{""user_agent"":""Mozilla/5.0 (Macintosh; Intel Mac OS X 10_14_4) AppleWebKit/537.36 (KHTML, like Gecko) Chrome/74.0.3729.169 Safari/537.36"",""on_chrome"":true,""on_mobile"":false,""language"":""en-US"",""screen_resolution"":[1440,900],""platform"":""MacIntel"",""timezone"":""Europe/Berlin""}","27","2171.5749999946916","","","1560327462108","18","","","[]","Forchheim","false","false","2863.0100000009406"
"","html-voicekey-response","84","511080","0.0-4.80-0.80","kyoj01zvz64gvue","{""user_agent"":""Mozilla/5.0 (Macintosh; Intel Mac OS X 10_14_4) AppleWebKit/537.36 (KHTML, like Gecko) Chrome/74.0.3729.169 Safari/537.36"",""on_chrome"":true,""on_mobile"":false,""language"":""en-US"",""screen_resolution"":[1440,900],""platform"":""MacIntel"",""timezone"":""Europe/Berlin""}","27","2362.310000005737","","","1560327468974","11","","Alfeld","[]","Alfeld","true","false","3321.3250000262633"
"","html-voicekey-response","85","520147","0.0-4.81-0.81","kyoj01zvz64gvue","{""user_agent"":""Mozilla/5.0 (Macintosh; Intel Mac OS X 10_14_4) AppleWebKit/537.36 (KHTML, like Gecko) Chrome/74.0.3729.169 Safari/537.36"",""on_chrome"":true,""on_mobile"":false,""language"":""en-US"",""screen_resolution"":[1440,900],""platform"":""MacIntel"",""timezone"":""Europe/Berlin""}","27","3355.645000012219","","","1560327472898","3","","","[]","Ingolstadt","false","false","5063.255000015488"
"","html-voicekey-response","86","533522","0.0-4.82-0.82","kyoj01zvz64gvue","{""user_agent"":""Mozilla/5.0 (Macintosh; Intel Mac OS X 10_14_4) AppleWebKit/537.36 (KHTML, like Gecko) Chrome/74.0.3729.169 Safari/537.36"",""on_chrome"":true,""on_mobile"":false,""language"":""en-US"",""screen_resolution"":[1440,900],""platform"":""MacIntel"",""timezone"":""Europe/Berlin""}","27","3860.965000008792","","","1560327481967","16","","","[]","Schwangau","false","false","9369.550000003073"
"","html-voicekey-response","87","540380","0.0-4.83-0.83","kyoj01zvz64gvue","{""user_agent"":""Mozilla/5.0 (Macintosh; Intel Mac OS X 10_14_4) AppleWebKit/537.36 (KHTML, like Gecko) Chrome/74.0.3729.169 Safari/537.36"",""on_chrome"":true,""on_mobile"":false,""language"":""en-US"",""screen_resolution"":[1440,900],""platform"":""MacIntel"",""timezone"":""Europe/Berlin""}","27","1929.8149999902585","","","1560327495340","15","","","[]","Nürnberg","false","false","2855.245000013383"
"","html-voicekey-response","88","547957","0.0-4.84-0.84","kyoj01zvz64gvue","{""user_agent"":""Mozilla/5.0 (Macintosh; Intel Mac OS X 10_14_4) AppleWebKit/537.36 (KHTML, like Gecko) Chrome/74.0.3729.169 Safari/537.36"",""on_chrome"":true,""on_mobile"":false,""language"":""en-US"",""screen_resolution"":[1440,900],""platform"":""MacIntel"",""timezone"":""Europe/Berlin""}","27","2871.1249999849592","","","1560327502198","3","","","[]","Ingolstadt","false","false","3573.4599999850616"
"","html-voicekey-response","89","550341","0.0-4.85-0.85","kyoj01zvz64gvue","{""user_agent"":""Mozilla/5.0 (Macintosh; Intel Mac OS X 10_14_4) AppleWebKit/537.36 (KHTML, like Gecko) Chrome/74.0.3729.169 Safari/537.36"",""on_chrome"":true,""on_mobile"":false,""language"":""en-US"",""screen_resolution"":[1440,900],""platform"":""MacIntel"",""timezone"":""Europe/Berlin""}","27","1055.094999997737","","","1560327509775","2","","Berlin","[]","Berlin","true","false","1780.6449999916367"
"","html-voicekey-response","90","553593","0.0-4.86-0.86","kyoj01zvz64gvue","{""user_agent"":""Mozilla/5.0 (Macintosh; Intel Mac OS X 10_14_4) AppleWebKit/537.36 (KHTML, like Gecko) Chrome/74.0.3729.169 Safari/537.36"",""on_chrome"":true,""on_mobile"":false,""language"":""en-US"",""screen_resolution"":[1440,900],""platform"":""MacIntel"",""timezone"":""Europe/Berlin""}","27","1555.3450000096113","","","1560327512158","3","","Ingolstadt","[]","Ingolstadt","true","false","2648.0699999956414"
"","html-voicekey-response","91","556564","0.0-4.87-0.87","kyoj01zvz64gvue","{""user_agent"":""Mozilla/5.0 (Macintosh; Intel Mac OS X 10_14_4) AppleWebKit/537.36 (KHTML, like Gecko) Chrome/74.0.3729.169 Safari/537.36"",""on_chrome"":true,""on_mobile"":false,""language"":""en-US"",""screen_resolution"":[1440,900],""platform"":""MacIntel"",""timezone"":""Europe/Berlin""}","27","1375.2800000164193","","","1560327515412","8","","Gotha","[]","Gotha","true","false","2367.0900000142865"
"","html-voicekey-response","92","559130","0.0-4.88-0.88","kyoj01zvz64gvue","{""user_agent"":""Mozilla/5.0 (Macintosh; Intel Mac OS X 10_14_4) AppleWebKit/537.36 (KHTML, like Gecko) Chrome/74.0.3729.169 Safari/537.36"",""on_chrome"":true,""on_mobile"":false,""language"":""en-US"",""screen_resolution"":[1440,900],""platform"":""MacIntel"",""timezone"":""Europe/Berlin""}","27","1070.7250000067056","","","1560327518382","1","","Magdeburg","[]","Magdeburg","true","false","1963.210000016261"
"","html-voicekey-response","93","571464","0.0-4.89-0.89","kyoj01zvz64gvue","{""user_agent"":""Mozilla/5.0 (Macintosh; Intel Mac OS X 10_14_4) AppleWebKit/537.36 (KHTML, like Gecko) Chrome/74.0.3729.169 Safari/537.36"",""on_chrome"":true,""on_mobile"":false,""language"":""en-US"",""screen_resolution"":[1440,900],""platform"":""MacIntel"",""timezone"":""Europe/Berlin""}","27","7637.2849999841765","","","1560327520949","18","","","[]","Forchheim","false","false","8329.49999999255"
"","html-voicekey-response","94","575407","0.0-4.90-0.90","kyoj01zvz64gvue","{""user_agent"":""Mozilla/5.0 (Macintosh; Intel Mac OS X 10_14_4) AppleWebKit/537.36 (KHTML, like Gecko) Chrome/74.0.3729.169 Safari/537.36"",""on_chrome"":true,""on_mobile"":false,""language"":""en-US"",""screen_resolution"":[1440,900],""platform"":""MacIntel"",""timezone"":""Europe/Berlin""}","27","2280.479999995651","","","1560327533283","16","","Schwangau","[]","Schwangau","true","false","3339.040000020759"
"","html-voicekey-response","95","581925","0.0-4.91-0.91","kyoj01zvz64gvue","{""user_agent"":""Mozilla/5.0 (Macintosh; Intel Mac OS X 10_14_4) AppleWebKit/537.36 (KHTML, like Gecko) Chrome/74.0.3729.169 Safari/537.36"",""on_chrome"":true,""on_mobile"":false,""language"":""en-US"",""screen_resolution"":[1440,900],""platform"":""MacIntel"",""timezone"":""Europe/Berlin""}","27","4754.464999985275","","","1560327537225","3","","Ingolstadt","[]","Ingolstadt","true","false","5914.025000005495"
"","html-voicekey-response","96","590069","0.0-4.92-0.92","kyoj01zvz64gvue","{""user_agent"":""Mozilla/5.0 (Macintosh; Intel Mac OS X 10_14_4) AppleWebKit/537.36 (KHTML, like Gecko) Chrome/74.0.3729.169 Safari/537.36"",""on_chrome"":true,""on_mobile"":false,""language"":""en-US"",""screen_resolution"":[1440,900],""platform"":""MacIntel"",""timezone"":""Europe/Berlin""}","27","3014.399999994412","","","1560327543744","15","","","[]","Nürnberg","false","false","4139.475000003586"
"","html-voicekey-response","97","597604","0.0-4.93-0.93","kyoj01zvz64gvue","{""user_agent"":""Mozilla/5.0 (Macintosh; Intel Mac OS X 10_14_4) AppleWebKit/537.36 (KHTML, like Gecko) Chrome/74.0.3729.169 Safari/537.36"",""on_chrome"":true,""on_mobile"":false,""language"":""en-US"",""screen_resolution"":[1440,900],""platform"":""MacIntel"",""timezone"":""Europe/Berlin""}","27","2787.930000000261","","","1560327551887","3","","","[]","Ingolstadt","false","false","3530.685000005178"
"","html-voicekey-response","98","601194","0.0-4.94-0.94","kyoj01zvz64gvue","{""user_agent"":""Mozilla/5.0 (Macintosh; Intel Mac OS X 10_14_4) AppleWebKit/537.36 (KHTML, like Gecko) Chrome/74.0.3729.169 Safari/537.36"",""on_chrome"":true,""on_mobile"":false,""language"":""en-US"",""screen_resolution"":[1440,900],""platform"":""MacIntel"",""timezone"":""Europe/Berlin""}","27","1976.9600000089035","","","1560327559423","10","","Heidelberg","[]","Heidelberg","true","false","2985.3100000182167"
"","html-voicekey-response","99","604310","0.0-4.95-0.95","kyoj01zvz64gvue","{""user_agent"":""Mozilla/5.0 (Macintosh; Intel Mac OS X 10_14_4) AppleWebKit/537.36 (KHTML, like Gecko) Chrome/74.0.3729.169 Safari/537.36"",""on_chrome"":true,""on_mobile"":false,""language"":""en-US"",""screen_resolution"":[1440,900],""platform"":""MacIntel"",""timezone"":""Europe/Berlin""}","27","1320.479999974696","","","1560327563012","3","","Ingolstadt","[]","Ingolstadt","true","false","2513.4499999985565"
"","html-voicekey-response","100","611668","0.0-4.96-0.96","kyoj01zvz64gvue","{""user_agent"":""Mozilla/5.0 (Macintosh; Intel Mac OS X 10_14_4) AppleWebKit/537.36 (KHTML, like Gecko) Chrome/74.0.3729.169 Safari/537.36"",""on_chrome"":true,""on_mobile"":false,""language"":""en-US"",""screen_resolution"":[1440,900],""platform"":""MacIntel"",""timezone"":""Europe/Berlin""}","27","2394.9300000184217","","","1560327566128","18","","","[]","Forchheim","false","false","3354.7100000141654"
"","html-voicekey-response","101","615867","0.0-4.97-0.97","kyoj01zvz64gvue","{""user_agent"":""Mozilla/5.0 (Macintosh; Intel Mac OS X 10_14_4) AppleWebKit/537.36 (KHTML, like Gecko) Chrome/74.0.3729.169 Safari/537.36"",""on_chrome"":true,""on_mobile"":false,""language"":""en-US"",""screen_resolution"":[1440,900],""platform"":""MacIntel"",""timezone"":""Europe/Berlin""}","27","2901.930000001658","","","1560327573488","5","","Aachen","[]","Aachen","true","false","3595.0249999877997"
"","html-voicekey-response","102","620277","0.0-4.98-0.98","kyoj01zvz64gvue","{""user_agent"":""Mozilla/5.0 (Macintosh; Intel Mac OS X 10_14_4) AppleWebKit/537.36 (KHTML, like Gecko) Chrome/74.0.3729.169 Safari/537.36"",""on_chrome"":true,""on_mobile"":false,""language"":""en-US"",""screen_resolution"":[1440,900],""platform"":""MacIntel"",""timezone"":""Europe/Berlin""}","27","2830.9249999964145","","","1560327577686","4","","Würzburg","[]","Würzburg","true","false","3805.9949999733362"
"","html-voicekey-response","103","626410","0.0-4.99-0.99","kyoj01zvz64gvue","{""user_agent"":""Mozilla/5.0 (Macintosh; Intel Mac OS X 10_14_4) AppleWebKit/537.36 (KHTML, like Gecko) Chrome/74.0.3729.169 Safari/537.36"",""on_chrome"":true,""on_mobile"":false,""language"":""en-US"",""screen_resolution"":[1440,900],""platform"":""MacIntel"",""timezone"":""Europe/Berlin""}","27","205.15499998312444","","","1560327582095","3","","Ingolstadt","[]","Ingolstadt","true","false","5530.484999995679"
"","html-voicekey-response","104","630301","0.0-4.100-0.100","kyoj01zvz64gvue","{""user_agent"":""Mozilla/5.0 (Macintosh; Intel Mac OS X 10_14_4) AppleWebKit/537.36 (KHTML, like Gecko) Chrome/74.0.3729.169 Safari/537.36"",""on_chrome"":true,""on_mobile"":false,""language"":""en-US"",""screen_resolution"":[1440,900],""platform"":""MacIntel"",""timezone"":""Europe/Berlin""}","27","2378.6800000032877","","","1560327588229","7","","Erfurt","[]","Erfurt","true","false","3287.770000024466"
"","html-voicekey-response","105","633568","0.0-4.101-0.101","kyoj01zvz64gvue","{""user_agent"":""Mozilla/5.0 (Macintosh; Intel Mac OS X 10_14_4) AppleWebKit/537.36 (KHTML, like Gecko) Chrome/74.0.3729.169 Safari/537.36"",""on_chrome"":true,""on_mobile"":false,""language"":""en-US"",""screen_resolution"":[1440,900],""platform"":""MacIntel"",""timezone"":""Europe/Berlin""}","27","1370.7450000018348","","","1560327592120","6","","Dresden","[]","Dresden","true","false","2663.299999985611"
"","html-voicekey-response","106","637301","0.0-4.102-0.102","kyoj01zvz64gvue","{""user_agent"":""Mozilla/5.0 (Macintosh; Intel Mac OS X 10_14_4) AppleWebKit/537.36 (KHTML, like Gecko) Chrome/74.0.3729.169 Safari/537.36"",""on_chrome"":true,""on_mobile"":false,""language"":""en-US"",""screen_resolution"":[1440,900],""platform"":""MacIntel"",""timezone"":""Europe/Berlin""}","27","1901.5849999940024","","","1560327595389","11","","Alfeld","[]","Alfeld","true","false","3127.1899999992456"
"","html-voicekey-response","107","648892","0.0-4.103-0.103","kyoj01zvz64gvue","{""user_agent"":""Mozilla/5.0 (Macintosh; Intel Mac OS X 10_14_4) AppleWebKit/537.36 (KHTML, like Gecko) Chrome/74.0.3729.169 Safari/537.36"",""on_chrome"":true,""on_mobile"":false,""language"":""en-US"",""screen_resolution"":[1440,900],""platform"":""MacIntel"",""timezone"":""Europe/Berlin""}","27","6245.475000012293","","","1560327599120","15","","","[]","Nürnberg","false","false","7586.284999997588"
"","html-voicekey-response","108","658817","0.0-4.104-0.104","kyoj01zvz64gvue","{""user_agent"":""Mozilla/5.0 (Macintosh; Intel Mac OS X 10_14_4) AppleWebKit/537.36 (KHTML, like Gecko) Chrome/74.0.3729.169 Safari/537.36"",""on_chrome"":true,""on_mobile"":false,""language"":""en-US"",""screen_resolution"":[1440,900],""platform"":""MacIntel"",""timezone"":""Europe/Berlin""}","27","188.58999998504297","","","1560327610711","18","","","[]","Forchheim","false","false","5921.249999984866"
"","html-voicekey-response","109","662500","0.0-4.105-0.105","kyoj01zvz64gvue","{""user_agent"":""Mozilla/5.0 (Macintosh; Intel Mac OS X 10_14_4) AppleWebKit/537.36 (KHTML, like Gecko) Chrome/74.0.3729.169 Safari/537.36"",""on_chrome"":true,""on_mobile"":false,""language"":""en-US"",""screen_resolution"":[1440,900],""platform"":""MacIntel"",""timezone"":""Europe/Berlin""}","27","1969.8650000007824","","","1560327620636","16","","Schwangau","[]","Schwangau","true","false","3079.379999981029"
"","html-voicekey-response","110","669827","0.0-4.106-0.106","kyoj01zvz64gvue","{""user_agent"":""Mozilla/5.0 (Macintosh; Intel Mac OS X 10_14_4) AppleWebKit/537.36 (KHTML, like Gecko) Chrome/74.0.3729.169 Safari/537.36"",""on_chrome"":true,""on_mobile"":false,""language"":""en-US"",""screen_resolution"":[1440,900],""platform"":""MacIntel"",""timezone"":""Europe/Berlin""}","27","5812.494999999972","","","1560327624321","15","","Nürnberg","[]","Nürnberg","true","false","6721.660000010161"
"","html-voicekey-response","111","677860","0.0-4.107-0.107","kyoj01zvz64gvue","{""user_agent"":""Mozilla/5.0 (Macintosh; Intel Mac OS X 10_14_4) AppleWebKit/537.36 (KHTML, like Gecko) Chrome/74.0.3729.169 Safari/537.36"",""on_chrome"":true,""on_mobile"":false,""language"":""en-US"",""screen_resolution"":[1440,900],""platform"":""MacIntel"",""timezone"":""Europe/Berlin""}","27","1904.190000010049","","","1560327631646","9","","","[]","München","false","false","4028.7550000066403"
"","html-voicekey-response","112","681017","0.0-4.108-0.108","kyoj01zvz64gvue","{""user_agent"":""Mozilla/5.0 (Macintosh; Intel Mac OS X 10_14_4) AppleWebKit/537.36 (KHTML, like Gecko) Chrome/74.0.3729.169 Safari/537.36"",""on_chrome"":true,""on_mobile"":false,""language"":""en-US"",""screen_resolution"":[1440,900],""platform"":""MacIntel"",""timezone"":""Europe/Berlin""}","27","1545.9800000042655","","","1560327639679","3","","Ingolstadt","[]","Ingolstadt","true","false","2554.3349999934435"
"","html-voicekey-response","113","684085","0.0-4.109-0.109","kyoj01zvz64gvue","{""user_agent"":""Mozilla/5.0 (Macintosh; Intel Mac OS X 10_14_4) AppleWebKit/537.36 (KHTML, like Gecko) Chrome/74.0.3729.169 Safari/537.36"",""on_chrome"":true,""on_mobile"":false,""language"":""en-US"",""screen_resolution"":[1440,900],""platform"":""MacIntel"",""timezone"":""Europe/Berlin""}","27","1769.9499999960885","","","1560327642837","5","","Aachen","[]","Aachen","true","false","2461.7900000012014"
"","html-voicekey-response","114","692093","0.0-4.110-0.110","kyoj01zvz64gvue","{""user_agent"":""Mozilla/5.0 (Macintosh; Intel Mac OS X 10_14_4) AppleWebKit/537.36 (KHTML, like Gecko) Chrome/74.0.3729.169 Safari/537.36"",""on_chrome"":true,""on_mobile"":false,""language"":""en-US"",""screen_resolution"":[1440,900],""platform"":""MacIntel"",""timezone"":""Europe/Berlin""}","27","2828.4850000143983","","","1560327645903","15","","","[]","Nürnberg","false","false","4004.7450000129174"
"","html-voicekey-response","115","696027","0.0-4.111-0.111","kyoj01zvz64gvue","{""user_agent"":""Mozilla/5.0 (Macintosh; Intel Mac OS X 10_14_4) AppleWebKit/537.36 (KHTML, like Gecko) Chrome/74.0.3729.169 Safari/537.36"",""on_chrome"":true,""on_mobile"":false,""language"":""en-US"",""screen_resolution"":[1440,900],""platform"":""MacIntel"",""timezone"":""Europe/Berlin""}","27","2520.375000001723","","","1560327653912","13","","Chemnitz","[]","Chemnitz","true","false","3329.3049999920186"
"","html-voicekey-response","116","705171","0.0-4.112-0.112","kyoj01zvz64gvue","{""user_agent"":""Mozilla/5.0 (Macintosh; Intel Mac OS X 10_14_4) AppleWebKit/537.36 (KHTML, like Gecko) Chrome/74.0.3729.169 Safari/537.36"",""on_chrome"":true,""on_mobile"":false,""language"":""en-US"",""screen_resolution"":[1440,900],""platform"":""MacIntel"",""timezone"":""Europe/Berlin""}","27","100","","","1560327657848","18","","","[]","Forchheim","false","false","5137.950000003912"
"","html-voicekey-response","117","707894","0.0-4.113-0.113","kyoj01zvz64gvue","{""user_agent"":""Mozilla/5.0 (Macintosh; Intel Mac OS X 10_14_4) AppleWebKit/537.36 (KHTML, like Gecko) Chrome/74.0.3729.169 Safari/537.36"",""on_chrome"":true,""on_mobile"":false,""language"":""en-US"",""screen_resolution"":[1440,900],""platform"":""MacIntel"",""timezone"":""Europe/Berlin""}","27","1319.6350000014995","","","1560327666990","12","","Dessau","[]","Dessau","true","false","2118.885000003502"
"","html-voicekey-response","118","714211","0.0-4.114-0.114","kyoj01zvz64gvue","{""user_agent"":""Mozilla/5.0 (Macintosh; Intel Mac OS X 10_14_4) AppleWebKit/537.36 (KHTML, like Gecko) Chrome/74.0.3729.169 Safari/537.36"",""on_chrome"":true,""on_mobile"":false,""language"":""en-US"",""screen_resolution"":[1440,900],""platform"":""MacIntel"",""timezone"":""Europe/Berlin""}","27","4788.454999981541","","","1560327669712","15","","Nürnberg","[]","Nürnberg","true","false","5713.214999996126"
"","html-voicekey-response","119","717078","0.0-4.115-0.115","kyoj01zvz64gvue","{""user_agent"":""Mozilla/5.0 (Macintosh; Intel Mac OS X 10_14_4) AppleWebKit/537.36 (KHTML, like Gecko) Chrome/74.0.3729.169 Safari/537.36"",""on_chrome"":true,""on_mobile"":false,""language"":""en-US"",""screen_resolution"":[1440,900],""platform"":""MacIntel"",""timezone"":""Europe/Berlin""}","27","1486.7750000065193","","","1560327676030","8","","Gotha","[]","Gotha","true","false","2262.3599999933504"
"","html-voicekey-response","120","720269","0.0-4.116-0.116","kyoj01zvz64gvue","{""user_agent"":""Mozilla/5.0 (Macintosh; Intel Mac OS X 10_14_4) AppleWebKit/537.36 (KHTML, like Gecko) Chrome/74.0.3729.169 Safari/537.36"",""on_chrome"":true,""on_mobile"":false,""language"":""en-US"",""screen_resolution"":[1440,900],""platform"":""MacIntel"",""timezone"":""Europe/Berlin""}","27","1411.5699999764097","","","1560327678897","19","","Frankfurt","[]","Frankfurt","true","true","2587.149999977555"
"","html-voicekey-response","121","723069","0.0-4.117-0.117","kyoj01zvz64gvue","{""user_agent"":""Mozilla/5.0 (Macintosh; Intel Mac OS X 10_14_4) AppleWebKit/537.36 (KHTML, like Gecko) Chrome/74.0.3729.169 Safari/537.36"",""on_chrome"":true,""on_mobile"":false,""language"":""en-US"",""screen_resolution"":[1440,900],""platform"":""MacIntel"",""timezone"":""Europe/Berlin""}","27","1186.3050000191201","","","1560327682089","20","","Hamburg ","[]","Hamburg ","true","true","2195.2800000144634"
"","html-voicekey-response","122","726334","0.0-4.118-0.118","kyoj01zvz64gvue","{""user_agent"":""Mozilla/5.0 (Macintosh; Intel Mac OS X 10_14_4) AppleWebKit/537.36 (KHTML, like Gecko) Chrome/74.0.3729.169 Safari/537.36"",""on_chrome"":true,""on_mobile"":false,""language"":""en-US"",""screen_resolution"":[1440,900],""platform"":""MacIntel"",""timezone"":""Europe/Berlin""}","27","1553.2350000083447","","","1560327684888","19","","Frankfurt","[]","Frankfurt","true","false","2661.2000000022817"
"","html-voicekey-response","123","728559","0.0-4.119-0.119","kyoj01zvz64gvue","{""user_agent"":""Mozilla/5.0 (Macintosh; Intel Mac OS X 10_14_4) AppleWebKit/537.36 (KHTML, like Gecko) Chrome/74.0.3729.169 Safari/537.36"",""on_chrome"":true,""on_mobile"":false,""language"":""en-US"",""screen_resolution"":[1440,900],""platform"":""MacIntel"",""timezone"":""Europe/Berlin""}","27","921.5849999835249","","","1560327688153","20","","Hamburg ","[]","Hamburg ","true","false","1621.1199999961536"
"","html-voicekey-response","124","733492","0.0-4.120-0.120","kyoj01zvz64gvue","{""user_agent"":""Mozilla/5.0 (Macintosh; Intel Mac OS X 10_14_4) AppleWebKit/537.36 (KHTML, like Gecko) Chrome/74.0.3729.169 Safari/537.36"",""on_chrome"":true,""on_mobile"":false,""language"":""en-US"",""screen_resolution"":[1440,900],""platform"":""MacIntel"",""timezone"":""Europe/Berlin""}","27","3486.559999999218","","","1560327690379","5","","Aachen","[]","Aachen","true","false","4328.080000006594"
"","html-voicekey-response","125","741792","0.0-4.121-0.121","kyoj01zvz64gvue","{""user_agent"":""Mozilla/5.0 (Macintosh; Intel Mac OS X 10_14_4) AppleWebKit/537.36 (KHTML, like Gecko) Chrome/74.0.3729.169 Safari/537.36"",""on_chrome"":true,""on_mobile"":false,""language"":""en-US"",""screen_resolution"":[1440,900],""platform"":""MacIntel"",""timezone"":""Europe/Berlin""}","27","1602.6499999951106","","","1560327695312","10","","","[]","Heidelberg","false","false","4293.979999987641"
"","html-voicekey-response","126","750666","0.0-4.122-0.122","kyoj01zvz64gvue","{""user_agent"":""Mozilla/5.0 (Macintosh; Intel Mac OS X 10_14_4) AppleWebKit/537.36 (KHTML, like Gecko) Chrome/74.0.3729.169 Safari/537.36"",""on_chrome"":true,""on_mobile"":false,""language"":""en-US"",""screen_resolution"":[1440,900],""platform"":""MacIntel"",""timezone"":""Europe/Berlin""}","27","100","","","1560327703611","15","","","[]","Nürnberg","false","false","4870.649999997113"
"","html-voicekey-response","127","753728","0.0-4.123-0.123","kyoj01zvz64gvue","{""user_agent"":""Mozilla/5.0 (Macintosh; Intel Mac OS X 10_14_4) AppleWebKit/537.36 (KHTML, like Gecko) Chrome/74.0.3729.169 Safari/537.36"",""on_chrome"":true,""on_mobile"":false,""language"":""en-US"",""screen_resolution"":[1440,900],""platform"":""MacIntel"",""timezone"":""Europe/Berlin""}","27","1820.3249999877066","","","1560327712486","9","","München","[]","München","true","false","2457.0349999994505"
"","html-voicekey-response","128","763095","0.0-4.124-0.124","kyoj01zvz64gvue","{""user_agent"":""Mozilla/5.0 (Macintosh; Intel Mac OS X 10_14_4) AppleWebKit/537.36 (KHTML, like Gecko) Chrome/74.0.3729.169 Safari/537.36"",""on_chrome"":true,""on_mobile"":false,""language"":""en-US"",""screen_resolution"":[1440,900],""platform"":""MacIntel"",""timezone"":""Europe/Berlin""}","27","4104.189999992586","","","1560327715547","15","","","[]","Nürnberg","false","false","5363.545000000158"
"","html-voicekey-response","129","767302","0.0-4.125-0.125","kyoj01zvz64gvue","{""user_agent"":""Mozilla/5.0 (Macintosh; Intel Mac OS X 10_14_4) AppleWebKit/537.36 (KHTML, like Gecko) Chrome/74.0.3729.169 Safari/537.36"",""on_chrome"":true,""on_mobile"":false,""language"":""en-US"",""screen_resolution"":[1440,900],""platform"":""MacIntel"",""timezone"":""Europe/Berlin""}","27","1585.8200000164566","","","1560327724914","3","","Ingolstadt","[]","Ingolstadt","true","false","3603.14500000095"
"","html-voicekey-response","130","770068","0.0-4.126-0.126","kyoj01zvz64gvue","{""user_agent"":""Mozilla/5.0 (Macintosh; Intel Mac OS X 10_14_4) AppleWebKit/537.36 (KHTML, like Gecko) Chrome/74.0.3729.169 Safari/537.36"",""on_chrome"":true,""on_mobile"":false,""language"":""en-US"",""screen_resolution"":[1440,900],""platform"":""MacIntel"",""timezone"":""Europe/Berlin""}","27","1552.8800000118558","","","1560327729122","15","","Nürnberg","[]","Nürnberg","true","false","2161.515000014333"
"","html-voicekey-response","131","777785","0.0-4.127-0.127","kyoj01zvz64gvue","{""user_agent"":""Mozilla/5.0 (Macintosh; Intel Mac OS X 10_14_4) AppleWebKit/537.36 (KHTML, like Gecko) Chrome/74.0.3729.169 Safari/537.36"",""on_chrome"":true,""on_mobile"":false,""language"":""en-US"",""screen_resolution"":[1440,900],""platform"":""MacIntel"",""timezone"":""Europe/Berlin""}","27","2819.500000021281","","","1560327731888","18","","","[]","Forchheim","false","false","3712.564999994356"
"","html-voicekey-response","132","786077","0.0-4.128-0.128","kyoj01zvz64gvue","{""user_agent"":""Mozilla/5.0 (Macintosh; Intel Mac OS X 10_14_4) AppleWebKit/537.36 (KHTML, like Gecko) Chrome/74.0.3729.169 Safari/537.36"",""on_chrome"":true,""on_mobile"":false,""language"":""en-US"",""screen_resolution"":[1440,900],""platform"":""MacIntel"",""timezone"":""Europe/Berlin""}","27","160.6049999916926","","","1560327739605","15","","","[]","Nürnberg","false","false","4286.239999986719"
"","html-voicekey-response","133","788855","0.0-4.129-0.129","kyoj01zvz64gvue","{""user_agent"":""Mozilla/5.0 (Macintosh; Intel Mac OS X 10_14_4) AppleWebKit/537.36 (KHTML, like Gecko) Chrome/74.0.3729.169 Safari/537.36"",""on_chrome"":true,""on_mobile"":false,""language"":""en-US"",""screen_resolution"":[1440,900],""platform"":""MacIntel"",""timezone"":""Europe/Berlin""}","27","1217.7949999839534","","","1560327747897","19","","Frankfurt","[]","Frankfurt","true","false","2173.030000005383"
"","html-voicekey-response","134","792422","0.0-4.130-0.130","kyoj01zvz64gvue","{""user_agent"":""Mozilla/5.0 (Macintosh; Intel Mac OS X 10_14_4) AppleWebKit/537.36 (KHTML, like Gecko) Chrome/74.0.3729.169 Safari/537.36"",""on_chrome"":true,""on_mobile"":false,""language"":""en-US"",""screen_resolution"":[1440,900],""platform"":""MacIntel"",""timezone"":""Europe/Berlin""}","27","2269.8400000025053","","","1560327750675","15","","Nürnberg","[]","Nürnberg","true","false","2961.825000005774"
"","html-voicekey-response","135","794738","0.0-4.131-0.131","kyoj01zvz64gvue","{""user_agent"":""Mozilla/5.0 (Macintosh; Intel Mac OS X 10_14_4) AppleWebKit/537.36 (KHTML, like Gecko) Chrome/74.0.3729.169 Safari/537.36"",""on_chrome"":true,""on_mobile"":false,""language"":""en-US"",""screen_resolution"":[1440,900],""platform"":""MacIntel"",""timezone"":""Europe/Berlin""}","27","1118.0350000011736","","","1560327754242","20","","Hamburg ","[]","Hamburg ","true","false","1711.5150000026915"
"","html-voicekey-response","136","802657","0.0-4.132-0.132","kyoj01zvz64gvue","{""user_agent"":""Mozilla/5.0 (Macintosh; Intel Mac OS X 10_14_4) AppleWebKit/537.36 (KHTML, like Gecko) Chrome/74.0.3729.169 Safari/537.36"",""on_chrome"":true,""on_mobile"":false,""language"":""en-US"",""screen_resolution"":[1440,900],""platform"":""MacIntel"",""timezone"":""Europe/Berlin""}","27","2819.3999999874272","","","1560327756558","18","","","[]","Forchheim","false","false","3911.2999999779277"
"","html-voicekey-response","137","806660","0.0-4.133-0.133","kyoj01zvz64gvue","{""user_agent"":""Mozilla/5.0 (Macintosh; Intel Mac OS X 10_14_4) AppleWebKit/537.36 (KHTML, like Gecko) Chrome/74.0.3729.169 Safari/537.36"",""on_chrome"":true,""on_mobile"":false,""language"":""en-US"",""screen_resolution"":[1440,900],""platform"":""MacIntel"",""timezone"":""Europe/Berlin""}","27","2540.765000021411","","","1560327764477","15","","Nürnberg","[]","Nürnberg","true","false","3398.7550000019837"
"","html-voicekey-response","138","809746","0.0-4.134-0.134","kyoj01zvz64gvue","{""user_agent"":""Mozilla/5.0 (Macintosh; Intel Mac OS X 10_14_4) AppleWebKit/537.36 (KHTML, like Gecko) Chrome/74.0.3729.169 Safari/537.36"",""on_chrome"":true,""on_mobile"":false,""language"":""en-US"",""screen_resolution"":[1440,900],""platform"":""MacIntel"",""timezone"":""Europe/Berlin""}","27","1770.519999999879","","","1560327768480","14","","Potsdam","[]","Potsdam","true","false","2479.1299999924377"
"","html-voicekey-response","139","812335","0.0-4.135-0.135","kyoj01zvz64gvue","{""user_agent"":""Mozilla/5.0 (Macintosh; Intel Mac OS X 10_14_4) AppleWebKit/537.36 (KHTML, like Gecko) Chrome/74.0.3729.169 Safari/537.36"",""on_chrome"":true,""on_mobile"":false,""language"":""en-US"",""screen_resolution"":[1440,900],""platform"":""MacIntel"",""timezone"":""Europe/Berlin""}","27","1240.9600000044798","","","1560327771567","15","","Nürnberg","[]","Nürnberg","true","false","1982.1649999939837"
"","html-voicekey-response","140","818468","0.0-4.136-0.136","kyoj01zvz64gvue","{""user_agent"":""Mozilla/5.0 (Macintosh; Intel Mac OS X 10_14_4) AppleWebKit/537.36 (KHTML, like Gecko) Chrome/74.0.3729.169 Safari/537.36"",""on_chrome"":true,""on_mobile"":false,""language"":""en-US"",""screen_resolution"":[1440,900],""platform"":""MacIntel"",""timezone"":""Europe/Berlin""}","27","3936.30500001912","","","1560327774155","18","","Forchheim","[]","Forchheim","true","false","5528.265000000829"
"","html-voicekey-response","141","821937","0.0-4.137-0.137","kyoj01zvz64gvue","{""user_agent"":""Mozilla/5.0 (Macintosh; Intel Mac OS X 10_14_4) AppleWebKit/537.36 (KHTML, like Gecko) Chrome/74.0.3729.169 Safari/537.36"",""on_chrome"":true,""on_mobile"":false,""language"":""en-US"",""screen_resolution"":[1440,900],""platform"":""MacIntel"",""timezone"":""Europe/Berlin""}","27","1886.4850000043866","","","1560327780288","16","","Schwangau","[]","Schwangau","true","false","2862.150000000838"
"","html-voicekey-response","142","831594","0.0-4.138-0.138","kyoj01zvz64gvue","{""user_agent"":""Mozilla/5.0 (Macintosh; Intel Mac OS X 10_14_4) AppleWebKit/537.36 (KHTML, like Gecko) Chrome/74.0.3729.169 Safari/537.36"",""on_chrome"":true,""on_mobile"":false,""language"":""en-US"",""screen_resolution"":[1440,900],""platform"":""MacIntel"",""timezone"":""Europe/Berlin""}","27","4926.935000004805","","","1560327783757","5","","","[]","Aachen","false","false","5652.3700000252575"
"","html-voicekey-response","143","840068","0.0-4.139-0.139","kyoj01zvz64gvue","{""user_agent"":""Mozilla/5.0 (Macintosh; Intel Mac OS X 10_14_4) AppleWebKit/537.36 (KHTML, like Gecko) Chrome/74.0.3729.169 Safari/537.36"",""on_chrome"":true,""on_mobile"":false,""language"":""en-US"",""screen_resolution"":[1440,900],""platform"":""MacIntel"",""timezone"":""Europe/Berlin""}","27","2620.3150000163355","","","1560327793414","15","","","[]","Nürnberg","false","false","4468.684999999823"
