"value","trial_type","trial_index","time_elapsed","internal_node_id","subject","browser_info","participant_number","rt","responses","view_history","presentation_start_time","id","text","response","keypresses","answer","correct","study","experimenter_rt"
"","call-function","0","4","0.0-0.0","bqwn7ghr0uq527g","{""user_agent"":""Mozilla/5.0 (Macintosh; Intel Mac OS X 10_14_4) AppleWebKit/537.36 (KHTML, like Gecko) Chrome/74.0.3729.169 Safari/537.36"",""on_chrome"":true,""on_mobile"":false,""language"":""en-US"",""screen_resolution"":[1440,900],""platform"":""MacIntel"",""timezone"":""Europe/Berlin""}","28","","","","","","","","","","","",""
"","survey-text","1","3468","0.0-1.0","bqwn7ghr0uq527g","{""user_agent"":""Mozilla/5.0 (Macintosh; Intel Mac OS X 10_14_4) AppleWebKit/537.36 (KHTML, like Gecko) Chrome/74.0.3729.169 Safari/537.36"",""on_chrome"":true,""on_mobile"":false,""language"":""en-US"",""screen_resolution"":[1440,900],""platform"":""MacIntel"",""timezone"":""Europe/Berlin""}","28","3462","{""Q0"":""28""}","","","","","","","","","",""
"","instructions","2","149631","0.0-2.0","bqwn7ghr0uq527g","{""user_agent"":""Mozilla/5.0 (Macintosh; Intel Mac OS X 10_14_4) AppleWebKit/537.36 (KHTML, like Gecko) Chrome/74.0.3729.169 Safari/537.36"",""on_chrome"":true,""on_mobile"":false,""language"":""en-US"",""screen_resolution"":[1440,900],""platform"":""MacIntel"",""timezone"":""Europe/Berlin""}","28","146162","","[{""page_index"":0,""viewing_time"":146162}]","","","","","","","","",""
"","call-function","3","149632","0.0-3.0","bqwn7ghr0uq527g","{""user_agent"":""Mozilla/5.0 (Macintosh; Intel Mac OS X 10_14_4) AppleWebKit/537.36 (KHTML, like Gecko) Chrome/74.0.3729.169 Safari/537.36"",""on_chrome"":true,""on_mobile"":false,""language"":""en-US"",""screen_resolution"":[1440,900],""platform"":""MacIntel"",""timezone"":""Europe/Berlin""}","28","","","","","","","","","","","",""
"","html-voicekey-response","4","155374","0.0-4.0-0.0","bqwn7ghr0uq527g","{""user_agent"":""Mozilla/5.0 (Macintosh; Intel Mac OS X 10_14_4) AppleWebKit/537.36 (KHTML, like Gecko) Chrome/74.0.3729.169 Safari/537.36"",""on_chrome"":true,""on_mobile"":false,""language"":""en-US"",""screen_resolution"":[1440,900],""platform"":""MacIntel"",""timezone"":""Europe/Berlin""}","28","4214.645000008959","","","1560332996226","1","","Magdeburg","[]","Magdeburg","true","true","5139.1550000116695"
"","html-voicekey-response","5","160289","0.0-4.1-0.1","bqwn7ghr0uq527g","{""user_agent"":""Mozilla/5.0 (Macintosh; Intel Mac OS X 10_14_4) AppleWebKit/537.36 (KHTML, like Gecko) Chrome/74.0.3729.169 Safari/537.36"",""on_chrome"":true,""on_mobile"":false,""language"":""en-US"",""screen_resolution"":[1440,900],""platform"":""MacIntel"",""timezone"":""Europe/Berlin""}","28","3602.995000002766","","","1560333001969","1","","Magdeburg","[]","Magdeburg","true","false","4312.2500000172295"
"","html-voicekey-response","6","166213","0.0-4.2-0.2","bqwn7ghr0uq527g","{""user_agent"":""Mozilla/5.0 (Macintosh; Intel Mac OS X 10_14_4) AppleWebKit/537.36 (KHTML, like Gecko) Chrome/74.0.3729.169 Safari/537.36"",""on_chrome"":true,""on_mobile"":false,""language"":""en-US"",""screen_resolution"":[1440,900],""platform"":""MacIntel"",""timezone"":""Europe/Berlin""}","28","4230.699999994458","","","1560333006883","2","","Berlin","[]","Berlin","true","true","5323.109999997541"
"","html-voicekey-response","7","172657","0.0-4.3-0.3","bqwn7ghr0uq527g","{""user_agent"":""Mozilla/5.0 (Macintosh; Intel Mac OS X 10_14_4) AppleWebKit/537.36 (KHTML, like Gecko) Chrome/74.0.3729.169 Safari/537.36"",""on_chrome"":true,""on_mobile"":false,""language"":""en-US"",""screen_resolution"":[1440,900],""platform"":""MacIntel"",""timezone"":""Europe/Berlin""}","28","5188.559999989438","","","1560333012807","2","","Berlin","[]","Berlin","true","false","5842.759999999544"
"","html-voicekey-response","8","192623","0.0-4.4-0.4","bqwn7ghr0uq527g","{""user_agent"":""Mozilla/5.0 (Macintosh; Intel Mac OS X 10_14_4) AppleWebKit/537.36 (KHTML, like Gecko) Chrome/74.0.3729.169 Safari/537.36"",""on_chrome"":true,""on_mobile"":false,""language"":""en-US"",""screen_resolution"":[1440,900],""platform"":""MacIntel"",""timezone"":""Europe/Berlin""}","28","2590.264999986021","","","1560333019251","3","","Ingolstadt","[]","Ingolstadt","true","true","19364.005000010366"
"","html-voicekey-response","9","196970","0.0-4.5-0.5","bqwn7ghr0uq527g","{""user_agent"":""Mozilla/5.0 (Macintosh; Intel Mac OS X 10_14_4) AppleWebKit/537.36 (KHTML, like Gecko) Chrome/74.0.3729.169 Safari/537.36"",""on_chrome"":true,""on_mobile"":false,""language"":""en-US"",""screen_resolution"":[1440,900],""platform"":""MacIntel"",""timezone"":""Europe/Berlin""}","28","100","","","1560333039217","4","","Würzburg","[]","Würzburg","true","true","3745.5250000057276"
"","html-voicekey-response","10","200586","0.0-4.6-0.6","bqwn7ghr0uq527g","{""user_agent"":""Mozilla/5.0 (Macintosh; Intel Mac OS X 10_14_4) AppleWebKit/537.36 (KHTML, like Gecko) Chrome/74.0.3729.169 Safari/537.36"",""on_chrome"":true,""on_mobile"":false,""language"":""en-US"",""screen_resolution"":[1440,900],""platform"":""MacIntel"",""timezone"":""Europe/Berlin""}","28","1638.5700000190177","","","1560333043564","3","","Ingolstadt","[]","Ingolstadt","true","false","3014.5200000260957"
"","html-voicekey-response","11","205103","0.0-4.7-0.7","bqwn7ghr0uq527g","{""user_agent"":""Mozilla/5.0 (Macintosh; Intel Mac OS X 10_14_4) AppleWebKit/537.36 (KHTML, like Gecko) Chrome/74.0.3729.169 Safari/537.36"",""on_chrome"":true,""on_mobile"":false,""language"":""en-US"",""screen_resolution"":[1440,900],""platform"":""MacIntel"",""timezone"":""Europe/Berlin""}","28","3306.6799999886193","","","1560333047180","4","","Würzburg","[]","Würzburg","true","false","3915.1549999951385"
"","html-voicekey-response","12","208844","0.0-4.8-0.8","bqwn7ghr0uq527g","{""user_agent"":""Mozilla/5.0 (Macintosh; Intel Mac OS X 10_14_4) AppleWebKit/537.36 (KHTML, like Gecko) Chrome/74.0.3729.169 Safari/537.36"",""on_chrome"":true,""on_mobile"":false,""language"":""en-US"",""screen_resolution"":[1440,900],""platform"":""MacIntel"",""timezone"":""Europe/Berlin""}","28","2314.5900000034367","","","1560333051697","1","","Magdeburg","[]","Magdeburg","true","false","3138.95500000217"
"","html-voicekey-response","13","215778","0.0-4.9-0.9","bqwn7ghr0uq527g","{""user_agent"":""Mozilla/5.0 (Macintosh; Intel Mac OS X 10_14_4) AppleWebKit/537.36 (KHTML, like Gecko) Chrome/74.0.3729.169 Safari/537.36"",""on_chrome"":true,""on_mobile"":false,""language"":""en-US"",""screen_resolution"":[1440,900],""platform"":""MacIntel"",""timezone"":""Europe/Berlin""}","28","5473.1350000164","","","1560333055438","5","","Aachen","[]","Aachen","true","true","6331.2950000108685"
"","html-voicekey-response","14","223384","0.0-4.10-0.10","bqwn7ghr0uq527g","{""user_agent"":""Mozilla/5.0 (Macintosh; Intel Mac OS X 10_14_4) AppleWebKit/537.36 (KHTML, like Gecko) Chrome/74.0.3729.169 Safari/537.36"",""on_chrome"":true,""on_mobile"":false,""language"":""en-US"",""screen_resolution"":[1440,900],""platform"":""MacIntel"",""timezone"":""Europe/Berlin""}","28","5812.335000004014","","","1560333062372","2","","Berlin","[]","Berlin","true","false","7004.220000002533"
"","html-voicekey-response","15","237451","0.0-4.11-0.11","bqwn7ghr0uq527g","{""user_agent"":""Mozilla/5.0 (Macintosh; Intel Mac OS X 10_14_4) AppleWebKit/537.36 (KHTML, like Gecko) Chrome/74.0.3729.169 Safari/537.36"",""on_chrome"":true,""on_mobile"":false,""language"":""en-US"",""screen_resolution"":[1440,900],""platform"":""MacIntel"",""timezone"":""Europe/Berlin""}","28","8405.684999985015","","","1560333069978","5","","","[]","Aachen","false","false","10064.429999998538"
"","html-voicekey-response","16","241348","0.0-4.12-0.12","bqwn7ghr0uq527g","{""user_agent"":""Mozilla/5.0 (Macintosh; Intel Mac OS X 10_14_4) AppleWebKit/537.36 (KHTML, like Gecko) Chrome/74.0.3729.169 Safari/537.36"",""on_chrome"":true,""on_mobile"":false,""language"":""en-US"",""screen_resolution"":[1440,900],""platform"":""MacIntel"",""timezone"":""Europe/Berlin""}","28","1604.0949999968057","","","1560333084045","6","","Dresden","[]","Dresden","true","true","3295.204999973066"
"","html-voicekey-response","17","248099","0.0-4.13-0.13","bqwn7ghr0uq527g","{""user_agent"":""Mozilla/5.0 (Macintosh; Intel Mac OS X 10_14_4) AppleWebKit/537.36 (KHTML, like Gecko) Chrome/74.0.3729.169 Safari/537.36"",""on_chrome"":true,""on_mobile"":false,""language"":""en-US"",""screen_resolution"":[1440,900],""platform"":""MacIntel"",""timezone"":""Europe/Berlin""}","28","3472.730000017537","","","1560333087942","7","","Erfurt","[]","Erfurt","true","true","6147.194999997737"
"","html-voicekey-response","18","251538","0.0-4.14-0.14","bqwn7ghr0uq527g","{""user_agent"":""Mozilla/5.0 (Macintosh; Intel Mac OS X 10_14_4) AppleWebKit/537.36 (KHTML, like Gecko) Chrome/74.0.3729.169 Safari/537.36"",""on_chrome"":true,""on_mobile"":false,""language"":""en-US"",""screen_resolution"":[1440,900],""platform"":""MacIntel"",""timezone"":""Europe/Berlin""}","28","1661.159999997681","","","1560333094694","6","","Dresden","[]","Dresden","true","false","2836.3349999999627"
"","html-voicekey-response","19","253988","0.0-4.15-0.15","bqwn7ghr0uq527g","{""user_agent"":""Mozilla/5.0 (Macintosh; Intel Mac OS X 10_14_4) AppleWebKit/537.36 (KHTML, like Gecko) Chrome/74.0.3729.169 Safari/537.36"",""on_chrome"":true,""on_mobile"":false,""language"":""en-US"",""screen_resolution"":[1440,900],""platform"":""MacIntel"",""timezone"":""Europe/Berlin""}","28","1105.3300000001677","","","1560333098132","7","","Erfurt","[]","Erfurt","true","false","1848.3499999856576"
"","html-voicekey-response","20","261955","0.0-4.16-0.16","bqwn7ghr0uq527g","{""user_agent"":""Mozilla/5.0 (Macintosh; Intel Mac OS X 10_14_4) AppleWebKit/537.36 (KHTML, like Gecko) Chrome/74.0.3729.169 Safari/537.36"",""on_chrome"":true,""on_mobile"":false,""language"":""en-US"",""screen_resolution"":[1440,900],""platform"":""MacIntel"",""timezone"":""Europe/Berlin""}","28","2370.600000003679","","","1560333100582","4","","","[]","Würzburg","false","false","3963.759999984177"
"","html-voicekey-response","21","268681","0.0-4.17-0.17","bqwn7ghr0uq527g","{""user_agent"":""Mozilla/5.0 (Macintosh; Intel Mac OS X 10_14_4) AppleWebKit/537.36 (KHTML, like Gecko) Chrome/74.0.3729.169 Safari/537.36"",""on_chrome"":true,""on_mobile"":false,""language"":""en-US"",""screen_resolution"":[1440,900],""platform"":""MacIntel"",""timezone"":""Europe/Berlin""}","28","5131.475000010896","","","1560333108549","3","","Ingolstadt","[]","Ingolstadt","true","false","6123.850000003586"
"","html-voicekey-response","22","273355","0.0-4.18-0.18","bqwn7ghr0uq527g","{""user_agent"":""Mozilla/5.0 (Macintosh; Intel Mac OS X 10_14_4) AppleWebKit/537.36 (KHTML, like Gecko) Chrome/74.0.3729.169 Safari/537.36"",""on_chrome"":true,""on_mobile"":false,""language"":""en-US"",""screen_resolution"":[1440,900],""platform"":""MacIntel"",""timezone"":""Europe/Berlin""}","28","3245.084999982128","","","1560333115276","2","","Berlin","[]","Berlin","true","false","4071.4349999907427"
"","html-voicekey-response","23","281887","0.0-4.19-0.19","bqwn7ghr0uq527g","{""user_agent"":""Mozilla/5.0 (Macintosh; Intel Mac OS X 10_14_4) AppleWebKit/537.36 (KHTML, like Gecko) Chrome/74.0.3729.169 Safari/537.36"",""on_chrome"":true,""on_mobile"":false,""language"":""en-US"",""screen_resolution"":[1440,900],""platform"":""MacIntel"",""timezone"":""Europe/Berlin""}","28","2706.1150000170805","","","1560333119949","5","","","[]","Aachen","false","false","4530.915000010282"
"","html-voicekey-response","24","288126","0.0-4.20-0.20","bqwn7ghr0uq527g","{""user_agent"":""Mozilla/5.0 (Macintosh; Intel Mac OS X 10_14_4) AppleWebKit/537.36 (KHTML, like Gecko) Chrome/74.0.3729.169 Safari/537.36"",""on_chrome"":true,""on_mobile"":false,""language"":""en-US"",""screen_resolution"":[1440,900],""platform"":""MacIntel"",""timezone"":""Europe/Berlin""}","28","1445.3299999966753","","","1560333128482","8","","Gotha","[]","Gotha","true","true","5637.040000001434"
"","html-voicekey-response","25","296867","0.0-4.21-0.21","bqwn7ghr0uq527g","{""user_agent"":""Mozilla/5.0 (Macintosh; Intel Mac OS X 10_14_4) AppleWebKit/537.36 (KHTML, like Gecko) Chrome/74.0.3729.169 Safari/537.36"",""on_chrome"":true,""on_mobile"":false,""language"":""en-US"",""screen_resolution"":[1440,900],""platform"":""MacIntel"",""timezone"":""Europe/Berlin""}","28","7488.720000002859","","","1560333134721","9","","München","[]","München","true","true","8138.119999988703"
"","html-voicekey-response","26","319901","0.0-4.22-0.22","bqwn7ghr0uq527g","{""user_agent"":""Mozilla/5.0 (Macintosh; Intel Mac OS X 10_14_4) AppleWebKit/537.36 (KHTML, like Gecko) Chrome/74.0.3729.169 Safari/537.36"",""on_chrome"":true,""on_mobile"":false,""language"":""en-US"",""screen_resolution"":[1440,900],""platform"":""MacIntel"",""timezone"":""Europe/Berlin""}","28","16937.039999998735","","","1560333143463","8","","","[]","Gotha","false","false","19029.509999993024"
"","html-voicekey-response","27","327769","0.0-4.23-0.23","bqwn7ghr0uq527g","{""user_agent"":""Mozilla/5.0 (Macintosh; Intel Mac OS X 10_14_4) AppleWebKit/537.36 (KHTML, like Gecko) Chrome/74.0.3729.169 Safari/537.36"",""on_chrome"":true,""on_mobile"":false,""language"":""en-US"",""screen_resolution"":[1440,900],""platform"":""MacIntel"",""timezone"":""Europe/Berlin""}","28","6754.795000024233","","","1560333166495","9","","München","[]","München","true","false","7264.335000014398"
"","html-voicekey-response","28","331294","0.0-4.24-0.24","bqwn7ghr0uq527g","{""user_agent"":""Mozilla/5.0 (Macintosh; Intel Mac OS X 10_14_4) AppleWebKit/537.36 (KHTML, like Gecko) Chrome/74.0.3729.169 Safari/537.36"",""on_chrome"":true,""on_mobile"":false,""language"":""en-US"",""screen_resolution"":[1440,900],""platform"":""MacIntel"",""timezone"":""Europe/Berlin""}","28","1480.7600000147709","","","1560333174363","2","","Berlin","[]","Berlin","true","false","2923.1049999943934"
"","html-voicekey-response","29","346162","0.0-4.25-0.25","bqwn7ghr0uq527g","{""user_agent"":""Mozilla/5.0 (Macintosh; Intel Mac OS X 10_14_4) AppleWebKit/537.36 (KHTML, like Gecko) Chrome/74.0.3729.169 Safari/537.36"",""on_chrome"":true,""on_mobile"":false,""language"":""en-US"",""screen_resolution"":[1440,900],""platform"":""MacIntel"",""timezone"":""Europe/Berlin""}","28","9138.604999994486","","","1560333177888","4","","","[]","Würzburg","false","false","10864.640000014333"
"","html-voicekey-response","30","351101","0.0-4.26-0.26","bqwn7ghr0uq527g","{""user_agent"":""Mozilla/5.0 (Macintosh; Intel Mac OS X 10_14_4) AppleWebKit/537.36 (KHTML, like Gecko) Chrome/74.0.3729.169 Safari/537.36"",""on_chrome"":true,""on_mobile"":false,""language"":""en-US"",""screen_resolution"":[1440,900],""platform"":""MacIntel"",""timezone"":""Europe/Berlin""}","28","100","","","1560333192757","6","","Dresden","[]","Dresden","true","false","4336.035000014817"
"","html-voicekey-response","31","364476","0.0-4.27-0.27","bqwn7ghr0uq527g","{""user_agent"":""Mozilla/5.0 (Macintosh; Intel Mac OS X 10_14_4) AppleWebKit/537.36 (KHTML, like Gecko) Chrome/74.0.3729.169 Safari/537.36"",""on_chrome"":true,""on_mobile"":false,""language"":""en-US"",""screen_resolution"":[1440,900],""platform"":""MacIntel"",""timezone"":""Europe/Berlin""}","28","7770.159999994421","","","1560333197696","7","","","[]","Erfurt","false","false","9371.845000016037"
"","html-voicekey-response","32","380969","0.0-4.28-0.28","bqwn7ghr0uq527g","{""user_agent"":""Mozilla/5.0 (Macintosh; Intel Mac OS X 10_14_4) AppleWebKit/537.36 (KHTML, like Gecko) Chrome/74.0.3729.169 Safari/537.36"",""on_chrome"":true,""on_mobile"":false,""language"":""en-US"",""screen_resolution"":[1440,900],""platform"":""MacIntel"",""timezone"":""Europe/Berlin""}","28","1670.7449999901933","","","1560333211070","3","","","[]","Ingolstadt","false","false","12490.595000010217"
"","html-voicekey-response","33","401329","0.0-4.29-0.29","bqwn7ghr0uq527g","{""user_agent"":""Mozilla/5.0 (Macintosh; Intel Mac OS X 10_14_4) AppleWebKit/537.36 (KHTML, like Gecko) Chrome/74.0.3729.169 Safari/537.36"",""on_chrome"":true,""on_mobile"":false,""language"":""en-US"",""screen_resolution"":[1440,900],""platform"":""MacIntel"",""timezone"":""Europe/Berlin""}","28","15099.139999985555","","","1560333227563","5","","","[]","Aachen","false","false","16357.809999986785"
"","html-voicekey-response","34","435336","0.0-4.30-0.30","bqwn7ghr0uq527g","{""user_agent"":""Mozilla/5.0 (Macintosh; Intel Mac OS X 10_14_4) AppleWebKit/537.36 (KHTML, like Gecko) Chrome/74.0.3729.169 Safari/537.36"",""on_chrome"":true,""on_mobile"":false,""language"":""en-US"",""screen_resolution"":[1440,900],""platform"":""MacIntel"",""timezone"":""Europe/Berlin""}","28","Infinity","","","1560333247925","4","","","[]","Würzburg","false","false","Infinity"
"","html-voicekey-response","35","443446","0.0-4.31-0.31","bqwn7ghr0uq527g","{""user_agent"":""Mozilla/5.0 (Macintosh; Intel Mac OS X 10_14_4) AppleWebKit/537.36 (KHTML, like Gecko) Chrome/74.0.3729.169 Safari/537.36"",""on_chrome"":true,""on_mobile"":false,""language"":""en-US"",""screen_resolution"":[1440,900],""platform"":""MacIntel"",""timezone"":""Europe/Berlin""}","28","5582.910000006295","","","1560333281931","8","","Gotha","[]","Gotha","true","false","7507.785000023432"
"","html-voicekey-response","36","457974","0.0-4.32-0.32","bqwn7ghr0uq527g","{""user_agent"":""Mozilla/5.0 (Macintosh; Intel Mac OS X 10_14_4) AppleWebKit/537.36 (KHTML, like Gecko) Chrome/74.0.3729.169 Safari/537.36"",""on_chrome"":true,""on_mobile"":false,""language"":""en-US"",""screen_resolution"":[1440,900],""platform"":""MacIntel"",""timezone"":""Europe/Berlin""}","28","499.5950000100769","","","1560333290040","3","","","[]","Ingolstadt","false","false","10525.400000013178"
"","html-voicekey-response","37","469597","0.0-4.33-0.33","bqwn7ghr0uq527g","{""user_agent"":""Mozilla/5.0 (Macintosh; Intel Mac OS X 10_14_4) AppleWebKit/537.36 (KHTML, like Gecko) Chrome/74.0.3729.169 Safari/537.36"",""on_chrome"":true,""on_mobile"":false,""language"":""en-US"",""screen_resolution"":[1440,900],""platform"":""MacIntel"",""timezone"":""Europe/Berlin""}","28","5844.9700000145","","","1560333304569","5","","","[]","Aachen","false","false","7620.135000004666"
"","html-voicekey-response","38","479521","0.0-4.34-0.34","bqwn7ghr0uq527g","{""user_agent"":""Mozilla/5.0 (Macintosh; Intel Mac OS X 10_14_4) AppleWebKit/537.36 (KHTML, like Gecko) Chrome/74.0.3729.169 Safari/537.36"",""on_chrome"":true,""on_mobile"":false,""language"":""en-US"",""screen_resolution"":[1440,900],""platform"":""MacIntel"",""timezone"":""Europe/Berlin""}","28","100","","","1560333316191","7","","","[]","Erfurt","false","false","5921.470000001136"
"","html-voicekey-response","39","483089","0.0-4.35-0.35","bqwn7ghr0uq527g","{""user_agent"":""Mozilla/5.0 (Macintosh; Intel Mac OS X 10_14_4) AppleWebKit/537.36 (KHTML, like Gecko) Chrome/74.0.3729.169 Safari/537.36"",""on_chrome"":true,""on_mobile"":false,""language"":""en-US"",""screen_resolution"":[1440,900],""platform"":""MacIntel"",""timezone"":""Europe/Berlin""}","28","100","","","1560333326115","2","","Berlin","[]","Berlin","true","false","2964.1650000121444"
"","html-voicekey-response","40","489848","0.0-4.36-0.36","bqwn7ghr0uq527g","{""user_agent"":""Mozilla/5.0 (Macintosh; Intel Mac OS X 10_14_4) AppleWebKit/537.36 (KHTML, like Gecko) Chrome/74.0.3729.169 Safari/537.36"",""on_chrome"":true,""on_mobile"":false,""language"":""en-US"",""screen_resolution"":[1440,900],""platform"":""MacIntel"",""timezone"":""Europe/Berlin""}","28","Infinity","","","1560333329684","9","","München","[]","München","true","false","6156.094999983907"
"","html-voicekey-response","41","506288","0.0-4.37-0.37","bqwn7ghr0uq527g","{""user_agent"":""Mozilla/5.0 (Macintosh; Intel Mac OS X 10_14_4) AppleWebKit/537.36 (KHTML, like Gecko) Chrome/74.0.3729.169 Safari/537.36"",""on_chrome"":true,""on_mobile"":false,""language"":""en-US"",""screen_resolution"":[1440,900],""platform"":""MacIntel"",""timezone"":""Europe/Berlin""}","28","756.6200000090524","","","1560333336442","4","","","[]","Würzburg","false","false","12438.52500000503"
"","html-voicekey-response","42","522441","0.0-4.38-0.38","bqwn7ghr0uq527g","{""user_agent"":""Mozilla/5.0 (Macintosh; Intel Mac OS X 10_14_4) AppleWebKit/537.36 (KHTML, like Gecko) Chrome/74.0.3729.169 Safari/537.36"",""on_chrome"":true,""on_mobile"":false,""language"":""en-US"",""screen_resolution"":[1440,900],""platform"":""MacIntel"",""timezone"":""Europe/Berlin""}","28","13765.764999998128","","","1560333352883","1","","Magdeburg","[]","Magdeburg","true","false","15550.584999989951"
"","html-voicekey-response","43","533725","0.0-4.39-0.39","bqwn7ghr0uq527g","{""user_agent"":""Mozilla/5.0 (Macintosh; Intel Mac OS X 10_14_4) AppleWebKit/537.36 (KHTML, like Gecko) Chrome/74.0.3729.169 Safari/537.36"",""on_chrome"":true,""on_mobile"":false,""language"":""en-US"",""screen_resolution"":[1440,900],""platform"":""MacIntel"",""timezone"":""Europe/Berlin""}","28","4555.910000004433","","","1560333369036","5","","","[]","Aachen","false","false","7281.099999992875"
"","html-voicekey-response","44","546220","0.0-4.40-0.40","bqwn7ghr0uq527g","{""user_agent"":""Mozilla/5.0 (Macintosh; Intel Mac OS X 10_14_4) AppleWebKit/537.36 (KHTML, like Gecko) Chrome/74.0.3729.169 Safari/537.36"",""on_chrome"":true,""on_mobile"":false,""language"":""en-US"",""screen_resolution"":[1440,900],""platform"":""MacIntel"",""timezone"":""Europe/Berlin""}","28","7338.709999990742","","","1560333380320","8","","","[]","Gotha","false","false","8492.425000004005"
"","html-voicekey-response","45","564876","0.0-4.41-0.41","bqwn7ghr0uq527g","{""user_agent"":""Mozilla/5.0 (Macintosh; Intel Mac OS X 10_14_4) AppleWebKit/537.36 (KHTML, like Gecko) Chrome/74.0.3729.169 Safari/537.36"",""on_chrome"":true,""on_mobile"":false,""language"":""en-US"",""screen_resolution"":[1440,900],""platform"":""MacIntel"",""timezone"":""Europe/Berlin""}","28","5286.219999988889","","","1560333392817","4","","","[]","Würzburg","false","false","14650.909999996657"
"","html-voicekey-response","46","576138","0.0-4.42-0.42","bqwn7ghr0uq527g","{""user_agent"":""Mozilla/5.0 (Macintosh; Intel Mac OS X 10_14_4) AppleWebKit/537.36 (KHTML, like Gecko) Chrome/74.0.3729.169 Safari/537.36"",""on_chrome"":true,""on_mobile"":false,""language"":""en-US"",""screen_resolution"":[1440,900],""platform"":""MacIntel"",""timezone"":""Europe/Berlin""}","28","2416.5149999988266","","","1560333411471","3","","","[]","Ingolstadt","false","false","7259.655000001658"
"","html-voicekey-response","47","591781","0.0-4.43-0.43","bqwn7ghr0uq527g","{""user_agent"":""Mozilla/5.0 (Macintosh; Intel Mac OS X 10_14_4) AppleWebKit/537.36 (KHTML, like Gecko) Chrome/74.0.3729.169 Safari/537.36"",""on_chrome"":true,""on_mobile"":false,""language"":""en-US"",""screen_resolution"":[1440,900],""platform"":""MacIntel"",""timezone"":""Europe/Berlin""}","28","10448.610000001127","","","1560333422734","7","","","[]","Erfurt","false","false","11639.689999981783"
"","html-voicekey-response","48","603026","0.0-4.44-0.44","bqwn7ghr0uq527g","{""user_agent"":""Mozilla/5.0 (Macintosh; Intel Mac OS X 10_14_4) AppleWebKit/537.36 (KHTML, like Gecko) Chrome/74.0.3729.169 Safari/537.36"",""on_chrome"":true,""on_mobile"":false,""language"":""en-US"",""screen_resolution"":[1440,900],""platform"":""MacIntel"",""timezone"":""Europe/Berlin""}","28","2565.9299999914133","","","1560333438375","9","","","[]","München","false","false","7242.085000005318"
"","html-voicekey-response","49","614765","0.0-4.45-0.45","bqwn7ghr0uq527g","{""user_agent"":""Mozilla/5.0 (Macintosh; Intel Mac OS X 10_14_4) AppleWebKit/537.36 (KHTML, like Gecko) Chrome/74.0.3729.169 Safari/537.36"",""on_chrome"":true,""on_mobile"":false,""language"":""en-US"",""screen_resolution"":[1440,900],""platform"":""MacIntel"",""timezone"":""Europe/Berlin""}","28","4178.1350000035945","","","1560333449620","5","","","[]","Aachen","false","false","7736.94499998237"
"","html-voicekey-response","50","632123","0.0-4.46-0.46","bqwn7ghr0uq527g","{""user_agent"":""Mozilla/5.0 (Macintosh; Intel Mac OS X 10_14_4) AppleWebKit/537.36 (KHTML, like Gecko) Chrome/74.0.3729.169 Safari/537.36"",""on_chrome"":true,""on_mobile"":false,""language"":""en-US"",""screen_resolution"":[1440,900],""platform"":""MacIntel"",""timezone"":""Europe/Berlin""}","28","5531.049999999441","","","1560333461359","8","","","[]","Gotha","false","false","13356.074999988778"
"","html-voicekey-response","51","649487","0.0-4.47-0.47","bqwn7ghr0uq527g","{""user_agent"":""Mozilla/5.0 (Macintosh; Intel Mac OS X 10_14_4) AppleWebKit/537.36 (KHTML, like Gecko) Chrome/74.0.3729.169 Safari/537.36"",""on_chrome"":true,""on_mobile"":false,""language"":""en-US"",""screen_resolution"":[1440,900],""platform"":""MacIntel"",""timezone"":""Europe/Berlin""}","28","15701.715000011818","","","1560333478718","2","","Berlin","[]","Berlin","true","false","16760.43500000378"
"","html-voicekey-response","52","655733","0.0-4.48-0.48","bqwn7ghr0uq527g","{""user_agent"":""Mozilla/5.0 (Macintosh; Intel Mac OS X 10_14_4) AppleWebKit/537.36 (KHTML, like Gecko) Chrome/74.0.3729.169 Safari/537.36"",""on_chrome"":true,""on_mobile"":false,""language"":""en-US"",""screen_resolution"":[1440,900],""platform"":""MacIntel"",""timezone"":""Europe/Berlin""}","28","119.58999999645167","","","1560333496081","4","","Würzburg","[]","Würzburg","true","false","5643.765000015264"
"","html-voicekey-response","53","669468","0.0-4.49-0.49","bqwn7ghr0uq527g","{""user_agent"":""Mozilla/5.0 (Macintosh; Intel Mac OS X 10_14_4) AppleWebKit/537.36 (KHTML, like Gecko) Chrome/74.0.3729.169 Safari/537.36"",""on_chrome"":true,""on_mobile"":false,""language"":""en-US"",""screen_resolution"":[1440,900],""platform"":""MacIntel"",""timezone"":""Europe/Berlin""}","28","Infinity","","","1560333502327","1","","Magdeburg","[]","Magdeburg","true","false","13130.944999982603"
"","html-voicekey-response","54","693267","0.0-4.50-0.50","bqwn7ghr0uq527g","{""user_agent"":""Mozilla/5.0 (Macintosh; Intel Mac OS X 10_14_4) AppleWebKit/537.36 (KHTML, like Gecko) Chrome/74.0.3729.169 Safari/537.36"",""on_chrome"":true,""on_mobile"":false,""language"":""en-US"",""screen_resolution"":[1440,900],""platform"":""MacIntel"",""timezone"":""Europe/Berlin""}","28","100","","","1560333516063","3","","","[]","Ingolstadt","false","false","19793.685000011465"
"","html-voicekey-response","55","707066","0.0-4.51-0.51","bqwn7ghr0uq527g","{""user_agent"":""Mozilla/5.0 (Macintosh; Intel Mac OS X 10_14_4) AppleWebKit/537.36 (KHTML, like Gecko) Chrome/74.0.3729.169 Safari/537.36"",""on_chrome"":true,""on_mobile"":false,""language"":""en-US"",""screen_resolution"":[1440,900],""platform"":""MacIntel"",""timezone"":""Europe/Berlin""}","28","6503.225000002049","","","1560333539862","7","","","[]","Erfurt","false","false","9794.445000006817"
"","html-voicekey-response","56","719307","0.0-4.52-0.52","bqwn7ghr0uq527g","{""user_agent"":""Mozilla/5.0 (Macintosh; Intel Mac OS X 10_14_4) AppleWebKit/537.36 (KHTML, like Gecko) Chrome/74.0.3729.169 Safari/537.36"",""on_chrome"":true,""on_mobile"":false,""language"":""en-US"",""screen_resolution"":[1440,900],""platform"":""MacIntel"",""timezone"":""Europe/Berlin""}","28","5978.969999976316","","","1560333553661","5","","","[]","Aachen","false","false","8237.249999976484"
"","html-voicekey-response","57","738417","0.0-4.53-0.53","bqwn7ghr0uq527g","{""user_agent"":""Mozilla/5.0 (Macintosh; Intel Mac OS X 10_14_4) AppleWebKit/537.36 (KHTML, like Gecko) Chrome/74.0.3729.169 Safari/537.36"",""on_chrome"":true,""on_mobile"":false,""language"":""en-US"",""screen_resolution"":[1440,900],""platform"":""MacIntel"",""timezone"":""Europe/Berlin""}","28","100","","","1560333565902","9","","","[]","München","false","false","15106.480000016745"
"","html-voicekey-response","58","757447","0.0-4.54-0.54","bqwn7ghr0uq527g","{""user_agent"":""Mozilla/5.0 (Macintosh; Intel Mac OS X 10_14_4) AppleWebKit/537.36 (KHTML, like Gecko) Chrome/74.0.3729.169 Safari/537.36"",""on_chrome"":true,""on_mobile"":false,""language"":""en-US"",""screen_resolution"":[1440,900],""platform"":""MacIntel"",""timezone"":""Europe/Berlin""}","28","2004.1949999957346","","","1560333585011","8","","","[]","Gotha","false","false","15028.335000009974"
"","html-voicekey-response","59","761017","0.0-4.55-0.55","bqwn7ghr0uq527g","{""user_agent"":""Mozilla/5.0 (Macintosh; Intel Mac OS X 10_14_4) AppleWebKit/537.36 (KHTML, like Gecko) Chrome/74.0.3729.169 Safari/537.36"",""on_chrome"":true,""on_mobile"":false,""language"":""en-US"",""screen_resolution"":[1440,900],""platform"":""MacIntel"",""timezone"":""Europe/Berlin""}","28","2192.6750000073575","","","1560333604041","2","","Berlin","[]","Berlin","true","false","2967.975000006845"
"","html-voicekey-response","60","786333","0.0-4.56-0.56","bqwn7ghr0uq527g","{""user_agent"":""Mozilla/5.0 (Macintosh; Intel Mac OS X 10_14_4) AppleWebKit/537.36 (KHTML, like Gecko) Chrome/74.0.3729.169 Safari/537.36"",""on_chrome"":true,""on_mobile"":false,""language"":""en-US"",""screen_resolution"":[1440,900],""platform"":""MacIntel"",""timezone"":""Europe/Berlin""}","28","6454.925000007124","","","1560333607611","4","","","[]","Würzburg","false","false","21313.085000001593"
"","html-voicekey-response","61","801787","0.0-4.57-0.57","bqwn7ghr0uq527g","{""user_agent"":""Mozilla/5.0 (Macintosh; Intel Mac OS X 10_14_4) AppleWebKit/537.36 (KHTML, like Gecko) Chrome/74.0.3729.169 Safari/537.36"",""on_chrome"":true,""on_mobile"":false,""language"":""en-US"",""screen_resolution"":[1440,900],""platform"":""MacIntel"",""timezone"":""Europe/Berlin""}","28","6891.985000003688","","","1560333632927","5","","","[]","Aachen","false","false","11450.349999999162"
"","html-voicekey-response","62","814194","0.0-4.58-0.58","bqwn7ghr0uq527g","{""user_agent"":""Mozilla/5.0 (Macintosh; Intel Mac OS X 10_14_4) AppleWebKit/537.36 (KHTML, like Gecko) Chrome/74.0.3729.169 Safari/537.36"",""on_chrome"":true,""on_mobile"":false,""language"":""en-US"",""screen_resolution"":[1440,900],""platform"":""MacIntel"",""timezone"":""Europe/Berlin""}","28","4576.439999984204","","","1560333648383","3","","","[]","Ingolstadt","false","false","8402.369999996154"
"","html-voicekey-response","63","848198","0.0-4.59-0.59","bqwn7ghr0uq527g","{""user_agent"":""Mozilla/5.0 (Macintosh; Intel Mac OS X 10_14_4) AppleWebKit/537.36 (KHTML, like Gecko) Chrome/74.0.3729.169 Safari/537.36"",""on_chrome"":true,""on_mobile"":false,""language"":""en-US"",""screen_resolution"":[1440,900],""platform"":""MacIntel"",""timezone"":""Europe/Berlin""}","28","Infinity","","","1560333660789","4","","","[]","Würzburg","false","false","Infinity"
"","html-voicekey-response","64","875944","0.0-4.60-0.60","bqwn7ghr0uq527g","{""user_agent"":""Mozilla/5.0 (Macintosh; Intel Mac OS X 10_14_4) AppleWebKit/537.36 (KHTML, like Gecko) Chrome/74.0.3729.169 Safari/537.36"",""on_chrome"":true,""on_mobile"":false,""language"":""en-US"",""screen_resolution"":[1440,900],""platform"":""MacIntel"",""timezone"":""Europe/Berlin""}","28","2584.1400000006893","","","1560333694794","5","","","[]","Aachen","false","false","23743.110000010347"
