"value","trial_type","trial_index","time_elapsed","internal_node_id","subject","browser_info","participant_number","rt","responses","view_history","presentation_start_time","id","text","response","keypresses","answer","correct","study","experimenter_rt"
"","call-function","0","5","0.0-0.0","e9bevj8cgynfgy9","{""user_agent"":""Mozilla/5.0 (Macintosh; Intel Mac OS X 10_14_4) AppleWebKit/537.36 (KHTML, like Gecko) Chrome/74.0.3729.169 Safari/537.36"",""on_chrome"":true,""on_mobile"":false,""language"":""en-US"",""screen_resolution"":[1440,900],""platform"":""MacIntel"",""timezone"":""Europe/Berlin""}","29","","","","","","","","","","","",""
"","survey-text","1","3239","0.0-1.0","e9bevj8cgynfgy9","{""user_agent"":""Mozilla/5.0 (Macintosh; Intel Mac OS X 10_14_4) AppleWebKit/537.36 (KHTML, like Gecko) Chrome/74.0.3729.169 Safari/537.36"",""on_chrome"":true,""on_mobile"":false,""language"":""en-US"",""screen_resolution"":[1440,900],""platform"":""MacIntel"",""timezone"":""Europe/Berlin""}","29","3232","{""Q0"":""29""}","","","","","","","","","",""
"","instructions","2","91247","0.0-2.0","e9bevj8cgynfgy9","{""user_agent"":""Mozilla/5.0 (Macintosh; Intel Mac OS X 10_14_4) AppleWebKit/537.36 (KHTML, like Gecko) Chrome/74.0.3729.169 Safari/537.36"",""on_chrome"":true,""on_mobile"":false,""language"":""en-US"",""screen_resolution"":[1440,900],""platform"":""MacIntel"",""timezone"":""Europe/Berlin""}","29","88006","","[{""page_index"":0,""viewing_time"":88005}]","","","","","","","","",""
"","call-function","3","91247","0.0-3.0","e9bevj8cgynfgy9","{""user_agent"":""Mozilla/5.0 (Macintosh; Intel Mac OS X 10_14_4) AppleWebKit/537.36 (KHTML, like Gecko) Chrome/74.0.3729.169 Safari/537.36"",""on_chrome"":true,""on_mobile"":false,""language"":""en-US"",""screen_resolution"":[1440,900],""platform"":""MacIntel"",""timezone"":""Europe/Berlin""}","29","","","","","","","","","","","",""
"","html-voicekey-response","4","95382","0.0-4.0-0.0","e9bevj8cgynfgy9","{""user_agent"":""Mozilla/5.0 (Macintosh; Intel Mac OS X 10_14_4) AppleWebKit/537.36 (KHTML, like Gecko) Chrome/74.0.3729.169 Safari/537.36"",""on_chrome"":true,""on_mobile"":false,""language"":""en-US"",""screen_resolution"":[1440,900],""platform"":""MacIntel"",""timezone"":""Europe/Berlin""}","29","2773.875000022445","","","1560416625348","1","","Magdeburg","[]","Magdeburg","true","true","3529.6500000113156"
"","html-voicekey-response","5","101380","0.0-4.1-0.1","e9bevj8cgynfgy9","{""user_agent"":""Mozilla/5.0 (Macintosh; Intel Mac OS X 10_14_4) AppleWebKit/537.36 (KHTML, like Gecko) Chrome/74.0.3729.169 Safari/537.36"",""on_chrome"":true,""on_mobile"":false,""language"":""en-US"",""screen_resolution"":[1440,900],""platform"":""MacIntel"",""timezone"":""Europe/Berlin""}","29","316.4849999974016","","","1560416629486","1","","Magdeburg","[]","Magdeburg","true","false","5391.065000003437"
"","html-voicekey-response","6","104505","0.0-4.2-0.2","e9bevj8cgynfgy9","{""user_agent"":""Mozilla/5.0 (Macintosh; Intel Mac OS X 10_14_4) AppleWebKit/537.36 (KHTML, like Gecko) Chrome/74.0.3729.169 Safari/537.36"",""on_chrome"":true,""on_mobile"":false,""language"":""en-US"",""screen_resolution"":[1440,900],""platform"":""MacIntel"",""timezone"":""Europe/Berlin""}","29","1639.015000002319","","","1560416635479","2","","Berlin","[]","Berlin","true","true","2522.9749999998603"
"","html-voicekey-response","7","109838","0.0-4.3-0.3","e9bevj8cgynfgy9","{""user_agent"":""Mozilla/5.0 (Macintosh; Intel Mac OS X 10_14_4) AppleWebKit/537.36 (KHTML, like Gecko) Chrome/74.0.3729.169 Safari/537.36"",""on_chrome"":true,""on_mobile"":false,""language"":""en-US"",""screen_resolution"":[1440,900],""platform"":""MacIntel"",""timezone"":""Europe/Berlin""}","29","4121.189999985136","","","1560416638605","2","","Berlin","[]","Berlin","true","false","4730.71499998332"
"","html-voicekey-response","8","113391","0.0-4.4-0.4","e9bevj8cgynfgy9","{""user_agent"":""Mozilla/5.0 (Macintosh; Intel Mac OS X 10_14_4) AppleWebKit/537.36 (KHTML, like Gecko) Chrome/74.0.3729.169 Safari/537.36"",""on_chrome"":true,""on_mobile"":false,""language"":""en-US"",""screen_resolution"":[1440,900],""platform"":""MacIntel"",""timezone"":""Europe/Berlin""}","29","1872.429999997467","","","1560416643937","3","","Ingolstadt","[]","Ingolstadt","true","true","2948.3999999938533"
"","html-voicekey-response","9","116381","0.0-4.5-0.5","e9bevj8cgynfgy9","{""user_agent"":""Mozilla/5.0 (Macintosh; Intel Mac OS X 10_14_4) AppleWebKit/537.36 (KHTML, like Gecko) Chrome/74.0.3729.169 Safari/537.36"",""on_chrome"":true,""on_mobile"":false,""language"":""en-US"",""screen_resolution"":[1440,900],""platform"":""MacIntel"",""timezone"":""Europe/Berlin""}","29","1428.6600000139792","","","1560416647490","4","","Würzburg","[]","Würzburg","true","true","2387.415000004694"
"","html-voicekey-response","10","120514","0.0-4.6-0.6","e9bevj8cgynfgy9","{""user_agent"":""Mozilla/5.0 (Macintosh; Intel Mac OS X 10_14_4) AppleWebKit/537.36 (KHTML, like Gecko) Chrome/74.0.3729.169 Safari/537.36"",""on_chrome"":true,""on_mobile"":false,""language"":""en-US"",""screen_resolution"":[1440,900],""platform"":""MacIntel"",""timezone"":""Europe/Berlin""}","29","2921.8649999910035","","","1560416650480","3","","Ingolstadt","[]","Ingolstadt","true","false","3530.7449999963865"
"","html-voicekey-response","11","123579","0.0-4.7-0.7","e9bevj8cgynfgy9","{""user_agent"":""Mozilla/5.0 (Macintosh; Intel Mac OS X 10_14_4) AppleWebKit/537.36 (KHTML, like Gecko) Chrome/74.0.3729.169 Safari/537.36"",""on_chrome"":true,""on_mobile"":false,""language"":""en-US"",""screen_resolution"":[1440,900],""platform"":""MacIntel"",""timezone"":""Europe/Berlin""}","29","472.4249999943189","","","1560416654613","4","","Würzburg","[]","Würzburg","true","false","2462.9249999998137"
"","html-voicekey-response","12","126858","0.0-4.8-0.8","e9bevj8cgynfgy9","{""user_agent"":""Mozilla/5.0 (Macintosh; Intel Mac OS X 10_14_4) AppleWebKit/537.36 (KHTML, like Gecko) Chrome/74.0.3729.169 Safari/537.36"",""on_chrome"":true,""on_mobile"":false,""language"":""en-US"",""screen_resolution"":[1440,900],""platform"":""MacIntel"",""timezone"":""Europe/Berlin""}","29","1768.3199999826961","","","1560416657678","5","","Aachen","[]","Aachen","true","true","2677.559999981895"
"","html-voicekey-response","13","129691","0.0-4.9-0.9","e9bevj8cgynfgy9","{""user_agent"":""Mozilla/5.0 (Macintosh; Intel Mac OS X 10_14_4) AppleWebKit/537.36 (KHTML, like Gecko) Chrome/74.0.3729.169 Safari/537.36"",""on_chrome"":true,""on_mobile"":false,""language"":""en-US"",""screen_resolution"":[1440,900],""platform"":""MacIntel"",""timezone"":""Europe/Berlin""}","29","1321.360000010673","","","1560416660958","6","","Dresden","[]","Dresden","true","true","2229.9549999879673"
"","html-voicekey-response","14","134457","0.0-4.10-0.10","e9bevj8cgynfgy9","{""user_agent"":""Mozilla/5.0 (Macintosh; Intel Mac OS X 10_14_4) AppleWebKit/537.36 (KHTML, like Gecko) Chrome/74.0.3729.169 Safari/537.36"",""on_chrome"":true,""on_mobile"":false,""language"":""en-US"",""screen_resolution"":[1440,900],""platform"":""MacIntel"",""timezone"":""Europe/Berlin""}","29","3573.0700000220445","","","1560416663790","5","","Aachen","[]","Aachen","true","false","4163.610000017798"
"","html-voicekey-response","15","137781","0.0-4.11-0.11","e9bevj8cgynfgy9","{""user_agent"":""Mozilla/5.0 (Macintosh; Intel Mac OS X 10_14_4) AppleWebKit/537.36 (KHTML, like Gecko) Chrome/74.0.3729.169 Safari/537.36"",""on_chrome"":true,""on_mobile"":false,""language"":""en-US"",""screen_resolution"":[1440,900],""platform"":""MacIntel"",""timezone"":""Europe/Berlin""}","29","1763.8449999884238","","","1560416668556","6","","Dresden","[]","Dresden","true","false","2722.2449999826495"
"","html-voicekey-response","16","140831","0.0-4.12-0.12","e9bevj8cgynfgy9","{""user_agent"":""Mozilla/5.0 (Macintosh; Intel Mac OS X 10_14_4) AppleWebKit/537.36 (KHTML, like Gecko) Chrome/74.0.3729.169 Safari/537.36"",""on_chrome"":true,""on_mobile"":false,""language"":""en-US"",""screen_resolution"":[1440,900],""platform"":""MacIntel"",""timezone"":""Europe/Berlin""}","29","1806.2299999963493","","","1560416671880","1","","Magdeburg","[]","Magdeburg","true","false","2448.0900000198744"
"","html-voicekey-response","17","144214","0.0-4.13-0.13","e9bevj8cgynfgy9","{""user_agent"":""Mozilla/5.0 (Macintosh; Intel Mac OS X 10_14_4) AppleWebKit/537.36 (KHTML, like Gecko) Chrome/74.0.3729.169 Safari/537.36"",""on_chrome"":true,""on_mobile"":false,""language"":""en-US"",""screen_resolution"":[1440,900],""platform"":""MacIntel"",""timezone"":""Europe/Berlin""}","29","1805.3950000119862","","","1560416674931","7","","Erfurt","[]","Erfurt","true","true","2779.5350000087637"
"","html-voicekey-response","18","146906","0.0-4.14-0.14","e9bevj8cgynfgy9","{""user_agent"":""Mozilla/5.0 (Macintosh; Intel Mac OS X 10_14_4) AppleWebKit/537.36 (KHTML, like Gecko) Chrome/74.0.3729.169 Safari/537.36"",""on_chrome"":true,""on_mobile"":false,""language"":""en-US"",""screen_resolution"":[1440,900],""platform"":""MacIntel"",""timezone"":""Europe/Berlin""}","29","1147.689999992354","","","1560416678314","2","","Berlin","[]","Berlin","true","false","2089.0249999938533"
"","html-voicekey-response","19","149406","0.0-4.15-0.15","e9bevj8cgynfgy9","{""user_agent"":""Mozilla/5.0 (Macintosh; Intel Mac OS X 10_14_4) AppleWebKit/537.36 (KHTML, like Gecko) Chrome/74.0.3729.169 Safari/537.36"",""on_chrome"":true,""on_mobile"":false,""language"":""en-US"",""screen_resolution"":[1440,900],""platform"":""MacIntel"",""timezone"":""Europe/Berlin""}","29","1105.469999989355","","","1560416681006","7","","Erfurt","[]","Erfurt","true","false","1897.384999989299"
"","html-voicekey-response","20","152223","0.0-4.16-0.16","e9bevj8cgynfgy9","{""user_agent"":""Mozilla/5.0 (Macintosh; Intel Mac OS X 10_14_4) AppleWebKit/537.36 (KHTML, like Gecko) Chrome/74.0.3729.169 Safari/537.36"",""on_chrome"":true,""on_mobile"":false,""language"":""en-US"",""screen_resolution"":[1440,900],""platform"":""MacIntel"",""timezone"":""Europe/Berlin""}","29","1423.8249999851455","","","1560416683504","8","","Gotha","[]","Gotha","true","true","2215.6899999827147"
"","html-voicekey-response","21","155091","0.0-4.17-0.17","e9bevj8cgynfgy9","{""user_agent"":""Mozilla/5.0 (Macintosh; Intel Mac OS X 10_14_4) AppleWebKit/537.36 (KHTML, like Gecko) Chrome/74.0.3729.169 Safari/537.36"",""on_chrome"":true,""on_mobile"":false,""language"":""en-US"",""screen_resolution"":[1440,900],""platform"":""MacIntel"",""timezone"":""Europe/Berlin""}","29","1372.5150000044146","","","1560416686322","9","","München","[]","München","true","true","2264.710000017658"
"","html-voicekey-response","22","160097","0.0-4.18-0.18","e9bevj8cgynfgy9","{""user_agent"":""Mozilla/5.0 (Macintosh; Intel Mac OS X 10_14_4) AppleWebKit/537.36 (KHTML, like Gecko) Chrome/74.0.3729.169 Safari/537.36"",""on_chrome"":true,""on_mobile"":false,""language"":""en-US"",""screen_resolution"":[1440,900],""platform"":""MacIntel"",""timezone"":""Europe/Berlin""}","29","3778.999999989383","","","1560416689191","8","","Gotha","[]","Gotha","true","false","4403.545000008307"
"","html-voicekey-response","23","163131","0.0-4.19-0.19","e9bevj8cgynfgy9","{""user_agent"":""Mozilla/5.0 (Macintosh; Intel Mac OS X 10_14_4) AppleWebKit/537.36 (KHTML, like Gecko) Chrome/74.0.3729.169 Safari/537.36"",""on_chrome"":true,""on_mobile"":false,""language"":""en-US"",""screen_resolution"":[1440,900],""platform"":""MacIntel"",""timezone"":""Europe/Berlin""}","29","1689.215000000177","","","1560416694196","9","","München","[]","München","true","false","2431.234999996377"
"","html-voicekey-response","24","166132","0.0-4.20-0.20","e9bevj8cgynfgy9","{""user_agent"":""Mozilla/5.0 (Macintosh; Intel Mac OS X 10_14_4) AppleWebKit/537.36 (KHTML, like Gecko) Chrome/74.0.3729.169 Safari/537.36"",""on_chrome"":true,""on_mobile"":false,""language"":""en-US"",""screen_resolution"":[1440,900],""platform"":""MacIntel"",""timezone"":""Europe/Berlin""}","29","1622.5250000223518","","","1560416697230","3","","Ingolstadt","[]","Ingolstadt","true","false","2397.3300000070594"
"","html-voicekey-response","25","168892","0.0-4.21-0.21","e9bevj8cgynfgy9","{""user_agent"":""Mozilla/5.0 (Macintosh; Intel Mac OS X 10_14_4) AppleWebKit/537.36 (KHTML, like Gecko) Chrome/74.0.3729.169 Safari/537.36"",""on_chrome"":true,""on_mobile"":false,""language"":""en-US"",""screen_resolution"":[1440,900],""platform"":""MacIntel"",""timezone"":""Europe/Berlin""}","29","1366.0750000070316","","","1560416700231","4","","Würzburg","[]","Würzburg","true","false","2157.875000004424"
"","html-voicekey-response","26","172009","0.0-4.22-0.22","e9bevj8cgynfgy9","{""user_agent"":""Mozilla/5.0 (Macintosh; Intel Mac OS X 10_14_4) AppleWebKit/537.36 (KHTML, like Gecko) Chrome/74.0.3729.169 Safari/537.36"",""on_chrome"":true,""on_mobile"":false,""language"":""en-US"",""screen_resolution"":[1440,900],""platform"":""MacIntel"",""timezone"":""Europe/Berlin""}","29","1389.3150000165683","","","1560416702991","10","","Heidelberg","[]","Heidelberg","true","true","2515.045000007376"
"","html-voicekey-response","27","175208","0.0-4.23-0.23","e9bevj8cgynfgy9","{""user_agent"":""Mozilla/5.0 (Macintosh; Intel Mac OS X 10_14_4) AppleWebKit/537.36 (KHTML, like Gecko) Chrome/74.0.3729.169 Safari/537.36"",""on_chrome"":true,""on_mobile"":false,""language"":""en-US"",""screen_resolution"":[1440,900],""platform"":""MacIntel"",""timezone"":""Europe/Berlin""}","29","1620.1049999888987","","","1560416706110","11","","Alfeld","[]","Alfeld","true","true","2594.184999994468"
"","html-voicekey-response","28","178231","0.0-4.24-0.24","e9bevj8cgynfgy9","{""user_agent"":""Mozilla/5.0 (Macintosh; Intel Mac OS X 10_14_4) AppleWebKit/537.36 (KHTML, like Gecko) Chrome/74.0.3729.169 Safari/537.36"",""on_chrome"":true,""on_mobile"":false,""language"":""en-US"",""screen_resolution"":[1440,900],""platform"":""MacIntel"",""timezone"":""Europe/Berlin""}","29","1672.13000000068","","","1560416709308","10","","Heidelberg","[]","Heidelberg","true","false","2419.8749999923166"
"","html-voicekey-response","29","181298","0.0-4.25-0.25","e9bevj8cgynfgy9","{""user_agent"":""Mozilla/5.0 (Macintosh; Intel Mac OS X 10_14_4) AppleWebKit/537.36 (KHTML, like Gecko) Chrome/74.0.3729.169 Safari/537.36"",""on_chrome"":true,""on_mobile"":false,""language"":""en-US"",""screen_resolution"":[1440,900],""platform"":""MacIntel"",""timezone"":""Europe/Berlin""}","29","1521.7149999896997","","","1560416712331","11","","Alfeld","[]","Alfeld","true","false","2463.595000008354"
"","html-voicekey-response","30","184348","0.0-4.26-0.26","e9bevj8cgynfgy9","{""user_agent"":""Mozilla/5.0 (Macintosh; Intel Mac OS X 10_14_4) AppleWebKit/537.36 (KHTML, like Gecko) Chrome/74.0.3729.169 Safari/537.36"",""on_chrome"":true,""on_mobile"":false,""language"":""en-US"",""screen_resolution"":[1440,900],""platform"":""MacIntel"",""timezone"":""Europe/Berlin""}","29","1487.759999998007","","","1560416715398","5","","Aachen","[]","Aachen","true","false","2447.314999997616"
"","html-voicekey-response","31","187233","0.0-4.27-0.27","e9bevj8cgynfgy9","{""user_agent"":""Mozilla/5.0 (Macintosh; Intel Mac OS X 10_14_4) AppleWebKit/537.36 (KHTML, like Gecko) Chrome/74.0.3729.169 Safari/537.36"",""on_chrome"":true,""on_mobile"":false,""language"":""en-US"",""screen_resolution"":[1440,900],""platform"":""MacIntel"",""timezone"":""Europe/Berlin""}","29","1386.5299999977929","","","1560416718450","6","","Dresden","[]","Dresden","true","false","2278.489999996964"
"","html-voicekey-response","32","190460","0.0-4.28-0.28","e9bevj8cgynfgy9","{""user_agent"":""Mozilla/5.0 (Macintosh; Intel Mac OS X 10_14_4) AppleWebKit/537.36 (KHTML, like Gecko) Chrome/74.0.3729.169 Safari/537.36"",""on_chrome"":true,""on_mobile"":false,""language"":""en-US"",""screen_resolution"":[1440,900],""platform"":""MacIntel"",""timezone"":""Europe/Berlin""}","29","1980.7200000012294","","","1560416721334","12","","Dessau","[]","Dessau","true","true","2622.2300000081304"
"","html-voicekey-response","33","193727","0.0-4.29-0.29","e9bevj8cgynfgy9","{""user_agent"":""Mozilla/5.0 (Macintosh; Intel Mac OS X 10_14_4) AppleWebKit/537.36 (KHTML, like Gecko) Chrome/74.0.3729.169 Safari/537.36"",""on_chrome"":true,""on_mobile"":false,""language"":""en-US"",""screen_resolution"":[1440,900],""platform"":""MacIntel"",""timezone"":""Europe/Berlin""}","29","1655.234999992745","","","1560416724559","13","","Chemnitz","[]","Chemnitz","true","true","2664.2099999880884"
"","html-voicekey-response","34","196377","0.0-4.30-0.30","e9bevj8cgynfgy9","{""user_agent"":""Mozilla/5.0 (Macintosh; Intel Mac OS X 10_14_4) AppleWebKit/537.36 (KHTML, like Gecko) Chrome/74.0.3729.169 Safari/537.36"",""on_chrome"":true,""on_mobile"":false,""language"":""en-US"",""screen_resolution"":[1440,900],""platform"":""MacIntel"",""timezone"":""Europe/Berlin""}","29","1154.2350000034553","","","1560416727827","12","","Dessau","[]","Dessau","true","false","2046.7550000175834"
"","html-voicekey-response","35","198917","0.0-4.31-0.31","e9bevj8cgynfgy9","{""user_agent"":""Mozilla/5.0 (Macintosh; Intel Mac OS X 10_14_4) AppleWebKit/537.36 (KHTML, like Gecko) Chrome/74.0.3729.169 Safari/537.36"",""on_chrome"":true,""on_mobile"":false,""language"":""en-US"",""screen_resolution"":[1440,900],""platform"":""MacIntel"",""timezone"":""Europe/Berlin""}","29","970.4900000159163","","","1560416730476","13","","Chemnitz","[]","Chemnitz","true","false","1937.6400000182912"
"","html-voicekey-response","36","201668","0.0-4.32-0.32","e9bevj8cgynfgy9","{""user_agent"":""Mozilla/5.0 (Macintosh; Intel Mac OS X 10_14_4) AppleWebKit/537.36 (KHTML, like Gecko) Chrome/74.0.3729.169 Safari/537.36"",""on_chrome"":true,""on_mobile"":false,""language"":""en-US"",""screen_resolution"":[1440,900],""platform"":""MacIntel"",""timezone"":""Europe/Berlin""}","29","1322.179999997234","","","1560416733017","7","","Erfurt","[]","Erfurt","true","false","2148.0849999934435"
"","html-voicekey-response","37","204366","0.0-4.33-0.33","e9bevj8cgynfgy9","{""user_agent"":""Mozilla/5.0 (Macintosh; Intel Mac OS X 10_14_4) AppleWebKit/537.36 (KHTML, like Gecko) Chrome/74.0.3729.169 Safari/537.36"",""on_chrome"":true,""on_mobile"":false,""language"":""en-US"",""screen_resolution"":[1440,900],""platform"":""MacIntel"",""timezone"":""Europe/Berlin""}","29","1237.2399999965915","","","1560416735768","8","","Gotha","[]","Gotha","true","false","2094.989999983227"
"","html-voicekey-response","38","207483","0.0-4.34-0.34","e9bevj8cgynfgy9","{""user_agent"":""Mozilla/5.0 (Macintosh; Intel Mac OS X 10_14_4) AppleWebKit/537.36 (KHTML, like Gecko) Chrome/74.0.3729.169 Safari/537.36"",""on_chrome"":true,""on_mobile"":false,""language"":""en-US"",""screen_resolution"":[1440,900],""platform"":""MacIntel"",""timezone"":""Europe/Berlin""}","29","1621.209999991907","","","1560416738467","14","","Potsdam","[]","Potsdam","true","true","2513.024999992922"
"","html-voicekey-response","39","210508","0.0-4.35-0.35","e9bevj8cgynfgy9","{""user_agent"":""Mozilla/5.0 (Macintosh; Intel Mac OS X 10_14_4) AppleWebKit/537.36 (KHTML, like Gecko) Chrome/74.0.3729.169 Safari/537.36"",""on_chrome"":true,""on_mobile"":false,""language"":""en-US"",""screen_resolution"":[1440,900],""platform"":""MacIntel"",""timezone"":""Europe/Berlin""}","29","1447.32499999539","","","1560416741583","9","","München","[]","München","true","false","2422.4800000083633"
"","html-voicekey-response","40","213059","0.0-4.36-0.36","e9bevj8cgynfgy9","{""user_agent"":""Mozilla/5.0 (Macintosh; Intel Mac OS X 10_14_4) AppleWebKit/537.36 (KHTML, like Gecko) Chrome/74.0.3729.169 Safari/537.36"",""on_chrome"":true,""on_mobile"":false,""language"":""en-US"",""screen_resolution"":[1440,900],""platform"":""MacIntel"",""timezone"":""Europe/Berlin""}","29","1121.545000010729","","","1560416744608","14","","Potsdam","[]","Potsdam","true","false","1947.5899999961257"
"","html-voicekey-response","41","215859","0.0-4.37-0.37","e9bevj8cgynfgy9","{""user_agent"":""Mozilla/5.0 (Macintosh; Intel Mac OS X 10_14_4) AppleWebKit/537.36 (KHTML, like Gecko) Chrome/74.0.3729.169 Safari/537.36"",""on_chrome"":true,""on_mobile"":false,""language"":""en-US"",""screen_resolution"":[1440,900],""platform"":""MacIntel"",""timezone"":""Europe/Berlin""}","29","1103.7449999801815","","","1560416747159","15","","Nürnberg","[]","Nürnberg","true","true","2196.605000004638"
"","html-voicekey-response","42","218995","0.0-4.38-0.38","e9bevj8cgynfgy9","{""user_agent"":""Mozilla/5.0 (Macintosh; Intel Mac OS X 10_14_4) AppleWebKit/537.36 (KHTML, like Gecko) Chrome/74.0.3729.169 Safari/537.36"",""on_chrome"":true,""on_mobile"":false,""language"":""en-US"",""screen_resolution"":[1440,900],""platform"":""MacIntel"",""timezone"":""Europe/Berlin""}","29","1338.4049999966287","","","1560416749959","16","","Schwangau","[]","Schwangau","true","true","2530.5200000002515"
"","html-voicekey-response","43","222215","0.0-4.39-0.39","e9bevj8cgynfgy9","{""user_agent"":""Mozilla/5.0 (Macintosh; Intel Mac OS X 10_14_4) AppleWebKit/537.36 (KHTML, like Gecko) Chrome/74.0.3729.169 Safari/537.36"",""on_chrome"":true,""on_mobile"":false,""language"":""en-US"",""screen_resolution"":[1440,900],""platform"":""MacIntel"",""timezone"":""Europe/Berlin""}","29","1875.3749999830966","","","1560416753094","15","","Nürnberg","[]","Nürnberg","true","false","2617.3199999902863"
"","html-voicekey-response","44","224764","0.0-4.40-0.40","e9bevj8cgynfgy9","{""user_agent"":""Mozilla/5.0 (Macintosh; Intel Mac OS X 10_14_4) AppleWebKit/537.36 (KHTML, like Gecko) Chrome/74.0.3729.169 Safari/537.36"",""on_chrome"":true,""on_mobile"":false,""language"":""en-US"",""screen_resolution"":[1440,900],""platform"":""MacIntel"",""timezone"":""Europe/Berlin""}","29","1072.0249999811408","","","1560416756314","16","","Schwangau","[]","Schwangau","true","false","1947.1149999881163"
"","html-voicekey-response","45","227614","0.0-4.41-0.41","e9bevj8cgynfgy9","{""user_agent"":""Mozilla/5.0 (Macintosh; Intel Mac OS X 10_14_4) AppleWebKit/537.36 (KHTML, like Gecko) Chrome/74.0.3729.169 Safari/537.36"",""on_chrome"":true,""on_mobile"":false,""language"":""en-US"",""screen_resolution"":[1440,900],""platform"":""MacIntel"",""timezone"":""Europe/Berlin""}","29","1371.91500000502","","","1560416758864","10","","Heidelberg","[]","Heidelberg","true","false","2247.410000010859"
"","html-voicekey-response","46","230873","0.0-4.42-0.42","e9bevj8cgynfgy9","{""user_agent"":""Mozilla/5.0 (Macintosh; Intel Mac OS X 10_14_4) AppleWebKit/537.36 (KHTML, like Gecko) Chrome/74.0.3729.169 Safari/537.36"",""on_chrome"":true,""on_mobile"":false,""language"":""en-US"",""screen_resolution"":[1440,900],""platform"":""MacIntel"",""timezone"":""Europe/Berlin""}","29","1954.7549999932294","","","1560416761714","11","","Alfeld","[]","Alfeld","true","false","2656.1649999930523"
"","html-voicekey-response","47","233655","0.0-4.43-0.43","e9bevj8cgynfgy9","{""user_agent"":""Mozilla/5.0 (Macintosh; Intel Mac OS X 10_14_4) AppleWebKit/537.36 (KHTML, like Gecko) Chrome/74.0.3729.169 Safari/537.36"",""on_chrome"":true,""on_mobile"":false,""language"":""en-US"",""screen_resolution"":[1440,900],""platform"":""MacIntel"",""timezone"":""Europe/Berlin""}","29","1116.664999988489","","","1560416764977","17","","Leipzig","[]","Leipzig","true","true","2174.7449999966193"
"","html-voicekey-response","48","236156","0.0-4.44-0.44","e9bevj8cgynfgy9","{""user_agent"":""Mozilla/5.0 (Macintosh; Intel Mac OS X 10_14_4) AppleWebKit/537.36 (KHTML, like Gecko) Chrome/74.0.3729.169 Safari/537.36"",""on_chrome"":true,""on_mobile"":false,""language"":""en-US"",""screen_resolution"":[1440,900],""platform"":""MacIntel"",""timezone"":""Europe/Berlin""}","29","1020.5499999954831","","","1560416767756","18","","Forchheim","[]","Forchheim","true","true","1897.079999995185"
"","html-voicekey-response","49","238988","0.0-4.45-0.45","e9bevj8cgynfgy9","{""user_agent"":""Mozilla/5.0 (Macintosh; Intel Mac OS X 10_14_4) AppleWebKit/537.36 (KHTML, like Gecko) Chrome/74.0.3729.169 Safari/537.36"",""on_chrome"":true,""on_mobile"":false,""language"":""en-US"",""screen_resolution"":[1440,900],""platform"":""MacIntel"",""timezone"":""Europe/Berlin""}","29","1253.514999998361","","","1560416770256","17","","Leipzig","[]","Leipzig","true","false","2229.475000000093"
"","html-voicekey-response","50","241682","0.0-4.46-0.46","e9bevj8cgynfgy9","{""user_agent"":""Mozilla/5.0 (Macintosh; Intel Mac OS X 10_14_4) AppleWebKit/537.36 (KHTML, like Gecko) Chrome/74.0.3729.169 Safari/537.36"",""on_chrome"":true,""on_mobile"":false,""language"":""en-US"",""screen_resolution"":[1440,900],""platform"":""MacIntel"",""timezone"":""Europe/Berlin""}","29","1248.8699999901933","","","1560416773089","18","","Forchheim","[]","Forchheim","true","false","2090.475000004517"
"","html-voicekey-response","51","243999","0.0-4.47-0.47","e9bevj8cgynfgy9","{""user_agent"":""Mozilla/5.0 (Macintosh; Intel Mac OS X 10_14_4) AppleWebKit/537.36 (KHTML, like Gecko) Chrome/74.0.3729.169 Safari/537.36"",""on_chrome"":true,""on_mobile"":false,""language"":""en-US"",""screen_resolution"":[1440,900],""platform"":""MacIntel"",""timezone"":""Europe/Berlin""}","29","1138.48500001207","","","1560416775782","12","","Dessau","[]","Dessau","true","false","1714.059999998426"
"","html-voicekey-response","52","246799","0.0-4.48-0.48","e9bevj8cgynfgy9","{""user_agent"":""Mozilla/5.0 (Macintosh; Intel Mac OS X 10_14_4) AppleWebKit/537.36 (KHTML, like Gecko) Chrome/74.0.3729.169 Safari/537.36"",""on_chrome"":true,""on_mobile"":false,""language"":""en-US"",""screen_resolution"":[1440,900],""platform"":""MacIntel"",""timezone"":""Europe/Berlin""}","29","1287.8599999911153","","","1560416778100","13","","Chemnitz","[]","Chemnitz","true","false","2196.1199999786913"
"","html-voicekey-response","53","249616","0.0-4.49-0.49","e9bevj8cgynfgy9","{""user_agent"":""Mozilla/5.0 (Macintosh; Intel Mac OS X 10_14_4) AppleWebKit/537.36 (KHTML, like Gecko) Chrome/74.0.3729.169 Safari/537.36"",""on_chrome"":true,""on_mobile"":false,""language"":""en-US"",""screen_resolution"":[1440,900],""platform"":""MacIntel"",""timezone"":""Europe/Berlin""}","29","1405.2250000039116","","","1560416780899","19","","Frankfurt","[]","Frankfurt","true","true","2213.9200000092387"
"","html-voicekey-response","54","252341","0.0-4.50-0.50","e9bevj8cgynfgy9","{""user_agent"":""Mozilla/5.0 (Macintosh; Intel Mac OS X 10_14_4) AppleWebKit/537.36 (KHTML, like Gecko) Chrome/74.0.3729.169 Safari/537.36"",""on_chrome"":true,""on_mobile"":false,""language"":""en-US"",""screen_resolution"":[1440,900],""platform"":""MacIntel"",""timezone"":""Europe/Berlin""}","29","1213.5499999947847","","","1560416783716","20","","Hamburg ","[]","Hamburg ","true","true","2122.4399999773595"
"","html-voicekey-response","55","254924","0.0-4.51-0.51","e9bevj8cgynfgy9","{""user_agent"":""Mozilla/5.0 (Macintosh; Intel Mac OS X 10_14_4) AppleWebKit/537.36 (KHTML, like Gecko) Chrome/74.0.3729.169 Safari/537.36"",""on_chrome"":true,""on_mobile"":false,""language"":""en-US"",""screen_resolution"":[1440,900],""platform"":""MacIntel"",""timezone"":""Europe/Berlin""}","29","1236.6100000015927","","","1560416786442","19","","Frankfurt","[]","Frankfurt","true","false","1979.220000008354"
"","html-voicekey-response","56","257241","0.0-4.52-0.52","e9bevj8cgynfgy9","{""user_agent"":""Mozilla/5.0 (Macintosh; Intel Mac OS X 10_14_4) AppleWebKit/537.36 (KHTML, like Gecko) Chrome/74.0.3729.169 Safari/537.36"",""on_chrome"":true,""on_mobile"":false,""language"":""en-US"",""screen_resolution"":[1440,900],""platform"":""MacIntel"",""timezone"":""Europe/Berlin""}","29","806.1600000163074","","","1560416789023","20","","Hamburg ","[]","Hamburg ","true","false","1714.2400000011548"
"","html-voicekey-response","57","259558","0.0-4.53-0.53","e9bevj8cgynfgy9","{""user_agent"":""Mozilla/5.0 (Macintosh; Intel Mac OS X 10_14_4) AppleWebKit/537.36 (KHTML, like Gecko) Chrome/74.0.3729.169 Safari/537.36"",""on_chrome"":true,""on_mobile"":false,""language"":""en-US"",""screen_resolution"":[1440,900],""platform"":""MacIntel"",""timezone"":""Europe/Berlin""}","29","1155.5399999868591","","","1560416791340","14","","Potsdam","[]","Potsdam","true","false","1714.9799999897368"
"","html-voicekey-response","58","262532","0.0-4.54-0.54","e9bevj8cgynfgy9","{""user_agent"":""Mozilla/5.0 (Macintosh; Intel Mac OS X 10_14_4) AppleWebKit/537.36 (KHTML, like Gecko) Chrome/74.0.3729.169 Safari/537.36"",""on_chrome"":true,""on_mobile"":false,""language"":""en-US"",""screen_resolution"":[1440,900],""platform"":""MacIntel"",""timezone"":""Europe/Berlin""}","29","1454.6449999996462","","","1560416793658","21","","Konstanz","[]","Konstanz","true","true","2371.675000002142"
"","html-voicekey-response","59","265299","0.0-4.55-0.55","e9bevj8cgynfgy9","{""user_agent"":""Mozilla/5.0 (Macintosh; Intel Mac OS X 10_14_4) AppleWebKit/537.36 (KHTML, like Gecko) Chrome/74.0.3729.169 Safari/537.36"",""on_chrome"":true,""on_mobile"":false,""language"":""en-US"",""screen_resolution"":[1440,900],""platform"":""MacIntel"",""timezone"":""Europe/Berlin""}","29","1538.3200000013226","","","1560416796632","15","","Nürnberg","[]","Nürnberg","true","false","2162.994999991497"
"","html-voicekey-response","60","268081","0.0-4.56-0.56","e9bevj8cgynfgy9","{""user_agent"":""Mozilla/5.0 (Macintosh; Intel Mac OS X 10_14_4) AppleWebKit/537.36 (KHTML, like Gecko) Chrome/74.0.3729.169 Safari/537.36"",""on_chrome"":true,""on_mobile"":false,""language"":""en-US"",""screen_resolution"":[1440,900],""platform"":""MacIntel"",""timezone"":""Europe/Berlin""}","29","1505.8149999911898","","","1560416799398","21","","Konstanz","[]","Konstanz","true","false","2180.335000011837"
"","html-voicekey-response","61","270616","0.0-4.57-0.57","e9bevj8cgynfgy9","{""user_agent"":""Mozilla/5.0 (Macintosh; Intel Mac OS X 10_14_4) AppleWebKit/537.36 (KHTML, like Gecko) Chrome/74.0.3729.169 Safari/537.36"",""on_chrome"":true,""on_mobile"":false,""language"":""en-US"",""screen_resolution"":[1440,900],""platform"":""MacIntel"",""timezone"":""Europe/Berlin""}","29","1223.4649999971502","","","1560416802181","16","","Schwangau","[]","Schwangau","true","false","1931.8199999979697"
"","html-voicekey-response","62","273442","0.0-4.58-0.58","e9bevj8cgynfgy9","{""user_agent"":""Mozilla/5.0 (Macintosh; Intel Mac OS X 10_14_4) AppleWebKit/537.36 (KHTML, like Gecko) Chrome/74.0.3729.169 Safari/537.36"",""on_chrome"":true,""on_mobile"":false,""language"":""en-US"",""screen_resolution"":[1440,900],""platform"":""MacIntel"",""timezone"":""Europe/Berlin""}","29","1430.8049999907148","","","1560416804715","22","","Bamberg","[]","Bamberg","true","true","2223.184999980731"
"","html-voicekey-response","63","276707","0.0-4.59-0.59","e9bevj8cgynfgy9","{""user_agent"":""Mozilla/5.0 (Macintosh; Intel Mac OS X 10_14_4) AppleWebKit/537.36 (KHTML, like Gecko) Chrome/74.0.3729.169 Safari/537.36"",""on_chrome"":true,""on_mobile"":false,""language"":""en-US"",""screen_resolution"":[1440,900],""platform"":""MacIntel"",""timezone"":""Europe/Berlin""}","29","1652.459999991907","","","1560416807542","23","","Stuttgart","[]","Stuttgart","true","true","2662.435000005644"
"","html-voicekey-response","64","285207","0.0-4.60-0.60","e9bevj8cgynfgy9","{""user_agent"":""Mozilla/5.0 (Macintosh; Intel Mac OS X 10_14_4) AppleWebKit/537.36 (KHTML, like Gecko) Chrome/74.0.3729.169 Safari/537.36"",""on_chrome"":true,""on_mobile"":false,""language"":""en-US"",""screen_resolution"":[1440,900],""platform"":""MacIntel"",""timezone"":""Europe/Berlin""}","29","3187.944999992242","","","1560416810808","22","","","[]","Bamberg","false","false","4496.524999995017"
"","html-voicekey-response","65","290166","0.0-4.61-0.61","e9bevj8cgynfgy9","{""user_agent"":""Mozilla/5.0 (Macintosh; Intel Mac OS X 10_14_4) AppleWebKit/537.36 (KHTML, like Gecko) Chrome/74.0.3729.169 Safari/537.36"",""on_chrome"":true,""on_mobile"":false,""language"":""en-US"",""screen_resolution"":[1440,900],""platform"":""MacIntel"",""timezone"":""Europe/Berlin""}","29","3680.110000024643","","","1560416819307","23","","Stuttgart","[]","Stuttgart","true","false","4355.76000000583"
"","html-voicekey-response","66","292532","0.0-4.62-0.62","e9bevj8cgynfgy9","{""user_agent"":""Mozilla/5.0 (Macintosh; Intel Mac OS X 10_14_4) AppleWebKit/537.36 (KHTML, like Gecko) Chrome/74.0.3729.169 Safari/537.36"",""on_chrome"":true,""on_mobile"":false,""language"":""en-US"",""screen_resolution"":[1440,900],""platform"":""MacIntel"",""timezone"":""Europe/Berlin""}","29","1021.7700000010431","","","1560416824265","17","","Leipzig","[]","Leipzig","true","false","1763.7349999858998"
"","html-voicekey-response","67","301624","0.0-4.63-0.63","e9bevj8cgynfgy9","{""user_agent"":""Mozilla/5.0 (Macintosh; Intel Mac OS X 10_14_4) AppleWebKit/537.36 (KHTML, like Gecko) Chrome/74.0.3729.169 Safari/537.36"",""on_chrome"":true,""on_mobile"":false,""language"":""en-US"",""screen_resolution"":[1440,900],""platform"":""MacIntel"",""timezone"":""Europe/Berlin""}","29","4530.464999997848","","","1560416826631","18","","","[]","Forchheim","false","false","5089.429999992717"
"","html-voicekey-response","68","304432","0.0-4.64-0.64","e9bevj8cgynfgy9","{""user_agent"":""Mozilla/5.0 (Macintosh; Intel Mac OS X 10_14_4) AppleWebKit/537.36 (KHTML, like Gecko) Chrome/74.0.3729.169 Safari/537.36"",""on_chrome"":true,""on_mobile"":false,""language"":""en-US"",""screen_resolution"":[1440,900],""platform"":""MacIntel"",""timezone"":""Europe/Berlin""}","29","1470.8100000078325","","","1560416835724","19","","Frankfurt","[]","Frankfurt","true","false","2203.6000000080094"
"","html-voicekey-response","69","306931","0.0-4.65-0.65","e9bevj8cgynfgy9","{""user_agent"":""Mozilla/5.0 (Macintosh; Intel Mac OS X 10_14_4) AppleWebKit/537.36 (KHTML, like Gecko) Chrome/74.0.3729.169 Safari/537.36"",""on_chrome"":true,""on_mobile"":false,""language"":""en-US"",""screen_resolution"":[1440,900],""platform"":""MacIntel"",""timezone"":""Europe/Berlin""}","29","1169.3350000221749","","","1560416838534","20","","Hamburg ","[]","Hamburg ","true","false","1893.5449999989942"
"","html-voicekey-response","70","309398","0.0-4.66-0.66","e9bevj8cgynfgy9","{""user_agent"":""Mozilla/5.0 (Macintosh; Intel Mac OS X 10_14_4) AppleWebKit/537.36 (KHTML, like Gecko) Chrome/74.0.3729.169 Safari/537.36"",""on_chrome"":true,""on_mobile"":false,""language"":""en-US"",""screen_resolution"":[1440,900],""platform"":""MacIntel"",""timezone"":""Europe/Berlin""}","29","1137.939999994915","","","1560416841031","24","","Köln","[]","Köln","true","true","1864.159999997355"
"","html-voicekey-response","71","313115","0.0-4.67-0.67","e9bevj8cgynfgy9","{""user_agent"":""Mozilla/5.0 (Macintosh; Intel Mac OS X 10_14_4) AppleWebKit/537.36 (KHTML, like Gecko) Chrome/74.0.3729.169 Safari/537.36"",""on_chrome"":true,""on_mobile"":false,""language"":""en-US"",""screen_resolution"":[1440,900],""platform"":""MacIntel"",""timezone"":""Europe/Berlin""}","29","2088.320000018785","","","1560416843498","21","","Konstanz","[]","Konstanz","true","false","3113.4900000179186"
"","html-voicekey-response","72","316372","0.0-4.68-0.68","e9bevj8cgynfgy9","{""user_agent"":""Mozilla/5.0 (Macintosh; Intel Mac OS X 10_14_4) AppleWebKit/537.36 (KHTML, like Gecko) Chrome/74.0.3729.169 Safari/537.36"",""on_chrome"":true,""on_mobile"":false,""language"":""en-US"",""screen_resolution"":[1440,900],""platform"":""MacIntel"",""timezone"":""Europe/Berlin""}","29","2046.8999999955763","","","1560416847214","24","","Köln","[]","Köln","true","false","2654.2649999901187"
"","html-voicekey-response","73","319656","0.0-4.69-0.69","e9bevj8cgynfgy9","{""user_agent"":""Mozilla/5.0 (Macintosh; Intel Mac OS X 10_14_4) AppleWebKit/537.36 (KHTML, like Gecko) Chrome/74.0.3729.169 Safari/537.36"",""on_chrome"":true,""on_mobile"":false,""language"":""en-US"",""screen_resolution"":[1440,900],""platform"":""MacIntel"",""timezone"":""Europe/Berlin""}","29","1554.2049999729265","","","1560416850472","25","","Osnabrück","[]","Osnabrück","true","true","2680.804999981774"
"","html-voicekey-response","74","322739","0.0-4.70-0.70","e9bevj8cgynfgy9","{""user_agent"":""Mozilla/5.0 (Macintosh; Intel Mac OS X 10_14_4) AppleWebKit/537.36 (KHTML, like Gecko) Chrome/74.0.3729.169 Safari/537.36"",""on_chrome"":true,""on_mobile"":false,""language"":""en-US"",""screen_resolution"":[1440,900],""platform"":""MacIntel"",""timezone"":""Europe/Berlin""}","29","1621.964999978291","","","1560416853756","26","","Freiburg","[]","Freiburg","true","true","2480.1449999795295"
"","html-voicekey-response","75","325815","0.0-4.71-0.71","e9bevj8cgynfgy9","{""user_agent"":""Mozilla/5.0 (Macintosh; Intel Mac OS X 10_14_4) AppleWebKit/537.36 (KHTML, like Gecko) Chrome/74.0.3729.169 Safari/537.36"",""on_chrome"":true,""on_mobile"":false,""language"":""en-US"",""screen_resolution"":[1440,900],""platform"":""MacIntel"",""timezone"":""Europe/Berlin""}","29","1505.3399999831804","","","1560416856839","25","","Osnabrück","[]","Osnabrück","true","false","2473.8699999870732"
"","html-voicekey-response","76","328199","0.0-4.72-0.72","e9bevj8cgynfgy9","{""user_agent"":""Mozilla/5.0 (Macintosh; Intel Mac OS X 10_14_4) AppleWebKit/537.36 (KHTML, like Gecko) Chrome/74.0.3729.169 Safari/537.36"",""on_chrome"":true,""on_mobile"":false,""language"":""en-US"",""screen_resolution"":[1440,900],""platform"":""MacIntel"",""timezone"":""Europe/Berlin""}","29","1053.9249999945519","","","1560416859916","26","","Freiburg","[]","Freiburg","true","false","1780.445000011241"
"","html-voicekey-response","77","335182","0.0-4.73-0.73","e9bevj8cgynfgy9","{""user_agent"":""Mozilla/5.0 (Macintosh; Intel Mac OS X 10_14_4) AppleWebKit/537.36 (KHTML, like Gecko) Chrome/74.0.3729.169 Safari/537.36"",""on_chrome"":true,""on_mobile"":false,""language"":""en-US"",""screen_resolution"":[1440,900],""platform"":""MacIntel"",""timezone"":""Europe/Berlin""}","29","1903.774999993248","","","1560416862299","22","","","[]","Bamberg","false","false","2980.1100000040606"
"","html-voicekey-response","78","338877","0.0-4.74-0.74","e9bevj8cgynfgy9","{""user_agent"":""Mozilla/5.0 (Macintosh; Intel Mac OS X 10_14_4) AppleWebKit/537.36 (KHTML, like Gecko) Chrome/74.0.3729.169 Safari/537.36"",""on_chrome"":true,""on_mobile"":false,""language"":""en-US"",""screen_resolution"":[1440,900],""platform"":""MacIntel"",""timezone"":""Europe/Berlin""}","29","2585.3750000040513","","","1560416869285","18","","Forchheim","[]","Forchheim","true","false","3089.669999986654"
"","html-voicekey-response","79","342144","0.0-4.75-0.75","e9bevj8cgynfgy9","{""user_agent"":""Mozilla/5.0 (Macintosh; Intel Mac OS X 10_14_4) AppleWebKit/537.36 (KHTML, like Gecko) Chrome/74.0.3729.169 Safari/537.36"",""on_chrome"":true,""on_mobile"":false,""language"":""en-US"",""screen_resolution"":[1440,900],""platform"":""MacIntel"",""timezone"":""Europe/Berlin""}","29","2022.2250000022818","","","1560416872977","23","","Stuttgart","[]","Stuttgart","true","false","2664.1400000080466"
"","html-voicekey-response","80","345060","0.0-4.76-0.76","e9bevj8cgynfgy9","{""user_agent"":""Mozilla/5.0 (Macintosh; Intel Mac OS X 10_14_4) AppleWebKit/537.36 (KHTML, like Gecko) Chrome/74.0.3729.169 Safari/537.36"",""on_chrome"":true,""on_mobile"":false,""language"":""en-US"",""screen_resolution"":[1440,900],""platform"":""MacIntel"",""timezone"":""Europe/Berlin""}","29","1422.0049999801909","","","1560416876244","27","","Tübingen","[]","Tübingen","true","true","2313.5849999962375"
"","html-voicekey-response","81","348277","0.0-4.77-0.77","e9bevj8cgynfgy9","{""user_agent"":""Mozilla/5.0 (Macintosh; Intel Mac OS X 10_14_4) AppleWebKit/537.36 (KHTML, like Gecko) Chrome/74.0.3729.169 Safari/537.36"",""on_chrome"":true,""on_mobile"":false,""language"":""en-US"",""screen_resolution"":[1440,900],""platform"":""MacIntel"",""timezone"":""Europe/Berlin""}","29","1438.5900000141469","","","1560416879160","28","","Regensburg","[]","Regensburg","true","true","2613.8949999876786"
"","html-voicekey-response","82","351252","0.0-4.78-0.78","e9bevj8cgynfgy9","{""user_agent"":""Mozilla/5.0 (Macintosh; Intel Mac OS X 10_14_4) AppleWebKit/537.36 (KHTML, like Gecko) Chrome/74.0.3729.169 Safari/537.36"",""on_chrome"":true,""on_mobile"":false,""language"":""en-US"",""screen_resolution"":[1440,900],""platform"":""MacIntel"",""timezone"":""Europe/Berlin""}","29","1496.544999981625","","","1560416882377","27","","Tübingen","[]","Tübingen","true","false","2372.0099999918602"
"","html-voicekey-response","83","353586","0.0-4.79-0.79","e9bevj8cgynfgy9","{""user_agent"":""Mozilla/5.0 (Macintosh; Intel Mac OS X 10_14_4) AppleWebKit/537.36 (KHTML, like Gecko) Chrome/74.0.3729.169 Safari/537.36"",""on_chrome"":true,""on_mobile"":false,""language"":""en-US"",""screen_resolution"":[1440,900],""platform"":""MacIntel"",""timezone"":""Europe/Berlin""}","29","938.9699999972712","","","1560416885352","28","","Regensburg","[]","Regensburg","true","false","1731.3350000185892"
"","html-voicekey-response","84","356218","0.0-4.80-0.80","e9bevj8cgynfgy9","{""user_agent"":""Mozilla/5.0 (Macintosh; Intel Mac OS X 10_14_4) AppleWebKit/537.36 (KHTML, like Gecko) Chrome/74.0.3729.169 Safari/537.36"",""on_chrome"":true,""on_mobile"":false,""language"":""en-US"",""screen_resolution"":[1440,900],""platform"":""MacIntel"",""timezone"":""Europe/Berlin""}","29","984.1400000239722","","","1560416887689","29","","Jena","[]","Jena","true","true","2026.3700000068638"
"","html-voicekey-response","85","358800","0.0-4.81-0.81","e9bevj8cgynfgy9","{""user_agent"":""Mozilla/5.0 (Macintosh; Intel Mac OS X 10_14_4) AppleWebKit/537.36 (KHTML, like Gecko) Chrome/74.0.3729.169 Safari/537.36"",""on_chrome"":true,""on_mobile"":false,""language"":""en-US"",""screen_resolution"":[1440,900],""platform"":""MacIntel"",""timezone"":""Europe/Berlin""}","29","1155.1600000037347","","","1560416890317","30","","Bremen","[]","Bremen","true","true","1980.1900000020396"
"","html-voicekey-response","86","361142","0.0-4.82-0.82","e9bevj8cgynfgy9","{""user_agent"":""Mozilla/5.0 (Macintosh; Intel Mac OS X 10_14_4) AppleWebKit/537.36 (KHTML, like Gecko) Chrome/74.0.3729.169 Safari/537.36"",""on_chrome"":true,""on_mobile"":false,""language"":""en-US"",""screen_resolution"":[1440,900],""platform"":""MacIntel"",""timezone"":""Europe/Berlin""}","29","1197.5100000070875","","","1560416892900","29","","Jena","[]","Jena","true","false","1739.3550000269897"
"","html-voicekey-response","87","364243","0.0-4.83-0.83","e9bevj8cgynfgy9","{""user_agent"":""Mozilla/5.0 (Macintosh; Intel Mac OS X 10_14_4) AppleWebKit/537.36 (KHTML, like Gecko) Chrome/74.0.3729.169 Safari/537.36"",""on_chrome"":true,""on_mobile"":false,""language"":""en-US"",""screen_resolution"":[1440,900],""platform"":""MacIntel"",""timezone"":""Europe/Berlin""}","29","1822.839999987837","","","1560416895242","30","","Bremen","[]","Bremen","true","false","2498.135000001639"
"","html-voicekey-response","88","366560","0.0-4.84-0.84","e9bevj8cgynfgy9","{""user_agent"":""Mozilla/5.0 (Macintosh; Intel Mac OS X 10_14_4) AppleWebKit/537.36 (KHTML, like Gecko) Chrome/74.0.3729.169 Safari/537.36"",""on_chrome"":true,""on_mobile"":false,""language"":""en-US"",""screen_resolution"":[1440,900],""platform"":""MacIntel"",""timezone"":""Europe/Berlin""}","29","1155.1800000105054","","","1560416898342","24","","Köln","[]","Köln","true","false","1714.4100000150502"
"","html-voicekey-response","89","372992","0.0-4.85-0.85","e9bevj8cgynfgy9","{""user_agent"":""Mozilla/5.0 (Macintosh; Intel Mac OS X 10_14_4) AppleWebKit/537.36 (KHTML, like Gecko) Chrome/74.0.3729.169 Safari/537.36"",""on_chrome"":true,""on_mobile"":false,""language"":""en-US"",""screen_resolution"":[1440,900],""platform"":""MacIntel"",""timezone"":""Europe/Berlin""}","29","5205.1149999986865","","","1560416900659","22","","Bamberg","[]","Bamberg","true","false","5830.675000004703"
"","html-voicekey-response","90","375988","0.0-4.86-0.86","e9bevj8cgynfgy9","{""user_agent"":""Mozilla/5.0 (Macintosh; Intel Mac OS X 10_14_4) AppleWebKit/537.36 (KHTML, like Gecko) Chrome/74.0.3729.169 Safari/537.36"",""on_chrome"":true,""on_mobile"":false,""language"":""en-US"",""screen_resolution"":[1440,900],""platform"":""MacIntel"",""timezone"":""Europe/Berlin""}","29","1466.6850000010804","","","1560416907093","25","","Osnabrück","[]","Osnabrück","true","false","2391.6800000006333"
"","html-voicekey-response","91","386205","0.0-4.87-0.87","e9bevj8cgynfgy9","{""user_agent"":""Mozilla/5.0 (Macintosh; Intel Mac OS X 10_14_4) AppleWebKit/537.36 (KHTML, like Gecko) Chrome/74.0.3729.169 Safari/537.36"",""on_chrome"":true,""on_mobile"":false,""language"":""en-US"",""screen_resolution"":[1440,900],""platform"":""MacIntel"",""timezone"":""Europe/Berlin""}","29","5571.590000015776","","","1560416910088","26","","","[]","Freiburg","false","false","6213.520000019344"
"","html-voicekey-response","92","391812","0.0-4.88-0.88","e9bevj8cgynfgy9","{""user_agent"":""Mozilla/5.0 (Macintosh; Intel Mac OS X 10_14_4) AppleWebKit/537.36 (KHTML, like Gecko) Chrome/74.0.3729.169 Safari/537.36"",""on_chrome"":true,""on_mobile"":false,""language"":""en-US"",""screen_resolution"":[1440,900],""platform"":""MacIntel"",""timezone"":""Europe/Berlin""}","29","4411.730000001471","","","1560416920305","18","","Forchheim","[]","Forchheim","true","false","5003.904999990482"
"","html-voicekey-response","93","394248","0.0-4.89-0.89","e9bevj8cgynfgy9","{""user_agent"":""Mozilla/5.0 (Macintosh; Intel Mac OS X 10_14_4) AppleWebKit/537.36 (KHTML, like Gecko) Chrome/74.0.3729.169 Safari/537.36"",""on_chrome"":true,""on_mobile"":false,""language"":""en-US"",""screen_resolution"":[1440,900],""platform"":""MacIntel"",""timezone"":""Europe/Berlin""}","29","1138.1399999753107","","","1560416925912","2","","Berlin","[]","Berlin","true","false","1830.8949999918696"
"","html-voicekey-response","94","405703","0.0-4.90-0.90","e9bevj8cgynfgy9","{""user_agent"":""Mozilla/5.0 (Macintosh; Intel Mac OS X 10_14_4) AppleWebKit/537.36 (KHTML, like Gecko) Chrome/74.0.3729.169 Safari/537.36"",""on_chrome"":true,""on_mobile"":false,""language"":""en-US"",""screen_resolution"":[1440,900],""platform"":""MacIntel"",""timezone"":""Europe/Berlin""}","29","6891.984999974584","","","1560416928349","27","","","[]","Tübingen","false","false","7450.819999998203"
"","html-voicekey-response","95","409880","0.0-4.91-0.91","e9bevj8cgynfgy9","{""user_agent"":""Mozilla/5.0 (Macintosh; Intel Mac OS X 10_14_4) AppleWebKit/537.36 (KHTML, like Gecko) Chrome/74.0.3729.169 Safari/537.36"",""on_chrome"":true,""on_mobile"":false,""language"":""en-US"",""screen_resolution"":[1440,900],""platform"":""MacIntel"",""timezone"":""Europe/Berlin""}","29","3004.9549999910873","","","1560416939802","22","","Bamberg","[]","Bamberg","true","false","3574.590000003809"
"","html-voicekey-response","96","412546","0.0-4.92-0.92","e9bevj8cgynfgy9","{""user_agent"":""Mozilla/5.0 (Macintosh; Intel Mac OS X 10_14_4) AppleWebKit/537.36 (KHTML, like Gecko) Chrome/74.0.3729.169 Safari/537.36"",""on_chrome"":true,""on_mobile"":false,""language"":""en-US"",""screen_resolution"":[1440,900],""platform"":""MacIntel"",""timezone"":""Europe/Berlin""}","29","1238.2699999814854","","","1560416943980","28","","Regensburg","[]","Regensburg","true","false","2063.5649999894667"
"","html-voicekey-response","97","414829","0.0-4.93-0.93","e9bevj8cgynfgy9","{""user_agent"":""Mozilla/5.0 (Macintosh; Intel Mac OS X 10_14_4) AppleWebKit/537.36 (KHTML, like Gecko) Chrome/74.0.3729.169 Safari/537.36"",""on_chrome"":true,""on_mobile"":false,""language"":""en-US"",""screen_resolution"":[1440,900],""platform"":""MacIntel"",""timezone"":""Europe/Berlin""}","29","1022.0099999949801","","","1560416946646","29","","Jena","[]","Jena","true","false","1680.4750000010245"
"","html-voicekey-response","98","418199","0.0-4.94-0.94","e9bevj8cgynfgy9","{""user_agent"":""Mozilla/5.0 (Macintosh; Intel Mac OS X 10_14_4) AppleWebKit/537.36 (KHTML, like Gecko) Chrome/74.0.3729.169 Safari/537.36"",""on_chrome"":true,""on_mobile"":false,""language"":""en-US"",""screen_resolution"":[1440,900],""platform"":""MacIntel"",""timezone"":""Europe/Berlin""}","29","2139.369999998808","","","1560416948929","30","","Bremen","[]","Bremen","true","false","2764.7050000086892"
"","html-voicekey-response","99","424837","0.0-4.95-0.95","e9bevj8cgynfgy9","{""user_agent"":""Mozilla/5.0 (Macintosh; Intel Mac OS X 10_14_4) AppleWebKit/537.36 (KHTML, like Gecko) Chrome/74.0.3729.169 Safari/537.36"",""on_chrome"":true,""on_mobile"":false,""language"":""en-US"",""screen_resolution"":[1440,900],""platform"":""MacIntel"",""timezone"":""Europe/Berlin""}","29","5476.075000022165","","","1560416952299","26","","Freiburg","[]","Freiburg","true","false","6034.675000002608"
"","html-voicekey-response","100","427754","0.0-4.96-0.96","e9bevj8cgynfgy9","{""user_agent"":""Mozilla/5.0 (Macintosh; Intel Mac OS X 10_14_4) AppleWebKit/537.36 (KHTML, like Gecko) Chrome/74.0.3729.169 Safari/537.36"",""on_chrome"":true,""on_mobile"":false,""language"":""en-US"",""screen_resolution"":[1440,900],""platform"":""MacIntel"",""timezone"":""Europe/Berlin""}","29","1570.4599999970292","","","1560416958938","18","","Forchheim","[]","Forchheim","true","false","2313.010000012582"
"","html-voicekey-response","101","430693","0.0-4.97-0.97","e9bevj8cgynfgy9","{""user_agent"":""Mozilla/5.0 (Macintosh; Intel Mac OS X 10_14_4) AppleWebKit/537.36 (KHTML, like Gecko) Chrome/74.0.3729.169 Safari/537.36"",""on_chrome"":true,""on_mobile"":false,""language"":""en-US"",""screen_resolution"":[1440,900],""platform"":""MacIntel"",""timezone"":""Europe/Berlin""}","29","1645.8549999895972","","","1560416961854","22","","Bamberg","[]","Bamberg","true","false","2337.180000002263"
"","html-voicekey-response","102","433094","0.0-4.98-0.98","e9bevj8cgynfgy9","{""user_agent"":""Mozilla/5.0 (Macintosh; Intel Mac OS X 10_14_4) AppleWebKit/537.36 (KHTML, like Gecko) Chrome/74.0.3729.169 Safari/537.36"",""on_chrome"":true,""on_mobile"":false,""language"":""en-US"",""screen_resolution"":[1440,900],""platform"":""MacIntel"",""timezone"":""Europe/Berlin""}","29","1138.054999997467","","","1560416964794","1","","Magdeburg","[]","Magdeburg","true","false","1797.1550000074785"
"","html-voicekey-response","103","435709","0.0-4.99-0.99","e9bevj8cgynfgy9","{""user_agent"":""Mozilla/5.0 (Macintosh; Intel Mac OS X 10_14_4) AppleWebKit/537.36 (KHTML, like Gecko) Chrome/74.0.3729.169 Safari/537.36"",""on_chrome"":true,""on_mobile"":false,""language"":""en-US"",""screen_resolution"":[1440,900],""platform"":""MacIntel"",""timezone"":""Europe/Berlin""}","29","1338.2599999984727","","","1560416967194","27","","Tübingen","[]","Tübingen","true","false","2012.0199999946635"
"","html-voicekey-response","104","442526","0.0-4.100-0.100","e9bevj8cgynfgy9","{""user_agent"":""Mozilla/5.0 (Macintosh; Intel Mac OS X 10_14_4) AppleWebKit/537.36 (KHTML, like Gecko) Chrome/74.0.3729.169 Safari/537.36"",""on_chrome"":true,""on_mobile"":false,""language"":""en-US"",""screen_resolution"":[1440,900],""platform"":""MacIntel"",""timezone"":""Europe/Berlin""}","29","1889.5050000081305","","","1560416969810","3","","","[]","Ingolstadt","false","false","2813.480000011623"
"","html-voicekey-response","105","445141","0.0-4.101-0.101","e9bevj8cgynfgy9","{""user_agent"":""Mozilla/5.0 (Macintosh; Intel Mac OS X 10_14_4) AppleWebKit/537.36 (KHTML, like Gecko) Chrome/74.0.3729.169 Safari/537.36"",""on_chrome"":true,""on_mobile"":false,""language"":""en-US"",""screen_resolution"":[1440,900],""platform"":""MacIntel"",""timezone"":""Europe/Berlin""}","29","1352.1500000004658","","","1560416976627","4","","Würzburg","[]","Würzburg","true","false","2010.6199999863748"
"","html-voicekey-response","106","448407","0.0-4.102-0.102","e9bevj8cgynfgy9","{""user_agent"":""Mozilla/5.0 (Macintosh; Intel Mac OS X 10_14_4) AppleWebKit/537.36 (KHTML, like Gecko) Chrome/74.0.3729.169 Safari/537.36"",""on_chrome"":true,""on_mobile"":false,""language"":""en-US"",""screen_resolution"":[1440,900],""platform"":""MacIntel"",""timezone"":""Europe/Berlin""}","29","2103.9800000233577","","","1560416979242","26","","Freiburg","[]","Freiburg","true","false","2662.3100000142585"
"","html-voicekey-response","107","450884","0.0-4.103-0.103","e9bevj8cgynfgy9","{""user_agent"":""Mozilla/5.0 (Macintosh; Intel Mac OS X 10_14_4) AppleWebKit/537.36 (KHTML, like Gecko) Chrome/74.0.3729.169 Safari/537.36"",""on_chrome"":true,""on_mobile"":false,""language"":""en-US"",""screen_resolution"":[1440,900],""platform"":""MacIntel"",""timezone"":""Europe/Berlin""}","29","1263.8850000019652","","","1560416982507","5","","Aachen","[]","Aachen","true","false","1873.569999996107"
"","html-voicekey-response","108","453749","0.0-4.104-0.104","e9bevj8cgynfgy9","{""user_agent"":""Mozilla/5.0 (Macintosh; Intel Mac OS X 10_14_4) AppleWebKit/537.36 (KHTML, like Gecko) Chrome/74.0.3729.169 Safari/537.36"",""on_chrome"":true,""on_mobile"":false,""language"":""en-US"",""screen_resolution"":[1440,900],""platform"":""MacIntel"",""timezone"":""Europe/Berlin""}","29","1401.7949999923353","","","1560416984985","6","","Dresden","[]","Dresden","true","false","2260.184999991907"
"","html-voicekey-response","109","456133","0.0-4.105-0.105","e9bevj8cgynfgy9","{""user_agent"":""Mozilla/5.0 (Macintosh; Intel Mac OS X 10_14_4) AppleWebKit/537.36 (KHTML, like Gecko) Chrome/74.0.3729.169 Safari/537.36"",""on_chrome"":true,""on_mobile"":false,""language"":""en-US"",""screen_resolution"":[1440,900],""platform"":""MacIntel"",""timezone"":""Europe/Berlin""}","29","1053.7700000075624","","","1560416987849","8","","Gotha","[]","Gotha","true","false","1780.1650000037625"
"","html-voicekey-response","110","460666","0.0-4.106-0.106","e9bevj8cgynfgy9","{""user_agent"":""Mozilla/5.0 (Macintosh; Intel Mac OS X 10_14_4) AppleWebKit/537.36 (KHTML, like Gecko) Chrome/74.0.3729.169 Safari/537.36"",""on_chrome"":true,""on_mobile"":false,""language"":""en-US"",""screen_resolution"":[1440,900],""platform"":""MacIntel"",""timezone"":""Europe/Berlin""}","29","3421.4849999787752","","","1560416990233","7","","Erfurt","[]","Erfurt","true","false","3929.5099999872036"
"","html-voicekey-response","111","463911","0.0-4.107-0.107","e9bevj8cgynfgy9","{""user_agent"":""Mozilla/5.0 (Macintosh; Intel Mac OS X 10_14_4) AppleWebKit/537.36 (KHTML, like Gecko) Chrome/74.0.3729.169 Safari/537.36"",""on_chrome"":true,""on_mobile"":false,""language"":""en-US"",""screen_resolution"":[1440,900],""platform"":""MacIntel"",""timezone"":""Europe/Berlin""}","29","2098.7350000157953","","","1560416994767","22","","Bamberg","[]","Bamberg","true","false","2641.0949999990407"
"","html-voicekey-response","112","466895","0.0-4.108-0.108","e9bevj8cgynfgy9","{""user_agent"":""Mozilla/5.0 (Macintosh; Intel Mac OS X 10_14_4) AppleWebKit/537.36 (KHTML, like Gecko) Chrome/74.0.3729.169 Safari/537.36"",""on_chrome"":true,""on_mobile"":false,""language"":""en-US"",""screen_resolution"":[1440,900],""platform"":""MacIntel"",""timezone"":""Europe/Berlin""}","29","1720.994999990426","","","1560416998012","9","","München","[]","München","true","false","2380.139999993844"
"","html-voicekey-response","113","469527","0.0-4.109-0.109","e9bevj8cgynfgy9","{""user_agent"":""Mozilla/5.0 (Macintosh; Intel Mac OS X 10_14_4) AppleWebKit/537.36 (KHTML, like Gecko) Chrome/74.0.3729.169 Safari/537.36"",""on_chrome"":true,""on_mobile"":false,""language"":""en-US"",""screen_resolution"":[1440,900],""platform"":""MacIntel"",""timezone"":""Europe/Berlin""}","29","1269.4749999880792","","","1560417000995","10","","Heidelberg","[]","Heidelberg","true","false","2028.7499999976717"
"","html-voicekey-response","114","479328","0.0-4.110-0.110","e9bevj8cgynfgy9","{""user_agent"":""Mozilla/5.0 (Macintosh; Intel Mac OS X 10_14_4) AppleWebKit/537.36 (KHTML, like Gecko) Chrome/74.0.3729.169 Safari/537.36"",""on_chrome"":true,""on_mobile"":false,""language"":""en-US"",""screen_resolution"":[1440,900],""platform"":""MacIntel"",""timezone"":""Europe/Berlin""}","29","4370.704999988293","","","1560417003628","11","","","[]","Alfeld","false","false","5795.589999994263"
"","html-voicekey-response","115","491889","0.0-4.111-0.111","e9bevj8cgynfgy9","{""user_agent"":""Mozilla/5.0 (Macintosh; Intel Mac OS X 10_14_4) AppleWebKit/537.36 (KHTML, like Gecko) Chrome/74.0.3729.169 Safari/537.36"",""on_chrome"":true,""on_mobile"":false,""language"":""en-US"",""screen_resolution"":[1440,900],""platform"":""MacIntel"",""timezone"":""Europe/Berlin""}","29","7530.195000008307","","","1560417013429","18","","","[]","Forchheim","false","false","8555.930000002263"
"","html-voicekey-response","116","494462","0.0-4.112-0.112","e9bevj8cgynfgy9","{""user_agent"":""Mozilla/5.0 (Macintosh; Intel Mac OS X 10_14_4) AppleWebKit/537.36 (KHTML, like Gecko) Chrome/74.0.3729.169 Safari/537.36"",""on_chrome"":true,""on_mobile"":false,""language"":""en-US"",""screen_resolution"":[1440,900],""platform"":""MacIntel"",""timezone"":""Europe/Berlin""}","29","1378.2199999930804","","","1560417025989","13","","Chemnitz","[]","Chemnitz","true","false","1970.3800000133924"
"","html-voicekey-response","117","496895","0.0-4.113-0.113","e9bevj8cgynfgy9","{""user_agent"":""Mozilla/5.0 (Macintosh; Intel Mac OS X 10_14_4) AppleWebKit/537.36 (KHTML, like Gecko) Chrome/74.0.3729.169 Safari/537.36"",""on_chrome"":true,""on_mobile"":false,""language"":""en-US"",""screen_resolution"":[1440,900],""platform"":""MacIntel"",""timezone"":""Europe/Berlin""}","29","1222.2849999760278","","","1560417028561","12","","Dessau","[]","Dessau","true","false","1831.064999976661"
"","html-voicekey-response","118","501097","0.0-4.114-0.114","e9bevj8cgynfgy9","{""user_agent"":""Mozilla/5.0 (Macintosh; Intel Mac OS X 10_14_4) AppleWebKit/537.36 (KHTML, like Gecko) Chrome/74.0.3729.169 Safari/537.36"",""on_chrome"":true,""on_mobile"":false,""language"":""en-US"",""screen_resolution"":[1440,900],""platform"":""MacIntel"",""timezone"":""Europe/Berlin""}","29","3055.5700000057464","","","1560417030995","26","","Freiburg","[]","Freiburg","true","false","3597.8049999976065"
"","html-voicekey-response","119","503924","0.0-4.115-0.115","e9bevj8cgynfgy9","{""user_agent"":""Mozilla/5.0 (Macintosh; Intel Mac OS X 10_14_4) AppleWebKit/537.36 (KHTML, like Gecko) Chrome/74.0.3729.169 Safari/537.36"",""on_chrome"":true,""on_mobile"":false,""language"":""en-US"",""screen_resolution"":[1440,900],""platform"":""MacIntel"",""timezone"":""Europe/Berlin""}","29","1460.50999998427","","","1560417035200","21","","Konstanz","[]","Konstanz","true","false","2220.130000001518"
"","html-voicekey-response","120","506705","0.0-4.116-0.116","e9bevj8cgynfgy9","{""user_agent"":""Mozilla/5.0 (Macintosh; Intel Mac OS X 10_14_4) AppleWebKit/537.36 (KHTML, like Gecko) Chrome/74.0.3729.169 Safari/537.36"",""on_chrome"":true,""on_mobile"":false,""language"":""en-US"",""screen_resolution"":[1440,900],""platform"":""MacIntel"",""timezone"":""Europe/Berlin""}","29","1500.9050000024495","","","1560417038026","14","","Potsdam","[]","Potsdam","true","false","2176.500000001397"
"","html-voicekey-response","121","509355","0.0-4.117-0.117","e9bevj8cgynfgy9","{""user_agent"":""Mozilla/5.0 (Macintosh; Intel Mac OS X 10_14_4) AppleWebKit/537.36 (KHTML, like Gecko) Chrome/74.0.3729.169 Safari/537.36"",""on_chrome"":true,""on_mobile"":false,""language"":""en-US"",""screen_resolution"":[1440,900],""platform"":""MacIntel"",""timezone"":""Europe/Berlin""}","29","1205.3249999970199","","","1560417040805","15","","Nürnberg","[]","Nürnberg","true","false","2047.404999990249"
"","html-voicekey-response","122","512107","0.0-4.118-0.118","e9bevj8cgynfgy9","{""user_agent"":""Mozilla/5.0 (Macintosh; Intel Mac OS X 10_14_4) AppleWebKit/537.36 (KHTML, like Gecko) Chrome/74.0.3729.169 Safari/537.36"",""on_chrome"":true,""on_mobile"":false,""language"":""en-US"",""screen_resolution"":[1440,900],""platform"":""MacIntel"",""timezone"":""Europe/Berlin""}","29","1339.394999997085","","","1560417043455","16","","Schwangau","[]","Schwangau","true","false","2147.85499998834"
"","html-voicekey-response","123","519544","0.0-4.119-0.119","e9bevj8cgynfgy9","{""user_agent"":""Mozilla/5.0 (Macintosh; Intel Mac OS X 10_14_4) AppleWebKit/537.36 (KHTML, like Gecko) Chrome/74.0.3729.169 Safari/537.36"",""on_chrome"":true,""on_mobile"":false,""language"":""en-US"",""screen_resolution"":[1440,900],""platform"":""MacIntel"",""timezone"":""Europe/Berlin""}","29","1925.8099999950268","","","1560417046207","3","","","[]","Ingolstadt","false","false","3434.869999997318"
"","html-voicekey-response","124","522178","0.0-4.120-0.120","e9bevj8cgynfgy9","{""user_agent"":""Mozilla/5.0 (Macintosh; Intel Mac OS X 10_14_4) AppleWebKit/537.36 (KHTML, like Gecko) Chrome/74.0.3729.169 Safari/537.36"",""on_chrome"":true,""on_mobile"":false,""language"":""en-US"",""screen_resolution"":[1440,900],""platform"":""MacIntel"",""timezone"":""Europe/Berlin""}","29","100","","","1560417053644","17","","Leipzig","[]","Leipzig","true","false","2031.4850000140723"
"","html-voicekey-response","125","525402","0.0-4.121-0.121","e9bevj8cgynfgy9","{""user_agent"":""Mozilla/5.0 (Macintosh; Intel Mac OS X 10_14_4) AppleWebKit/537.36 (KHTML, like Gecko) Chrome/74.0.3729.169 Safari/537.36"",""on_chrome"":true,""on_mobile"":false,""language"":""en-US"",""screen_resolution"":[1440,900],""platform"":""MacIntel"",""timezone"":""Europe/Berlin""}","29","1861.364999998687","","","1560417056278","22","","Bamberg","[]","Bamberg","true","false","2621.034999989206"
"","html-voicekey-response","126","529552","0.0-4.122-0.122","e9bevj8cgynfgy9","{""user_agent"":""Mozilla/5.0 (Macintosh; Intel Mac OS X 10_14_4) AppleWebKit/537.36 (KHTML, like Gecko) Chrome/74.0.3729.169 Safari/537.36"",""on_chrome"":true,""on_mobile"":false,""language"":""en-US"",""screen_resolution"":[1440,900],""platform"":""MacIntel"",""timezone"":""Europe/Berlin""}","29","2485.9999999842607","","","1560417059504","26","","Freiburg","[]","Freiburg","true","false","3544.949999981327"
"","html-voicekey-response","127","532634","0.0-4.123-0.123","e9bevj8cgynfgy9","{""user_agent"":""Mozilla/5.0 (Macintosh; Intel Mac OS X 10_14_4) AppleWebKit/537.36 (KHTML, like Gecko) Chrome/74.0.3729.169 Safari/537.36"",""on_chrome"":true,""on_mobile"":false,""language"":""en-US"",""screen_resolution"":[1440,900],""platform"":""MacIntel"",""timezone"":""Europe/Berlin""}","29","1667.7899999866263","","","1560417063654","19","","Frankfurt","[]","Frankfurt","true","false","2476.669999974547"
"","html-voicekey-response","128","535141","0.0-4.124-0.124","e9bevj8cgynfgy9","{""user_agent"":""Mozilla/5.0 (Macintosh; Intel Mac OS X 10_14_4) AppleWebKit/537.36 (KHTML, like Gecko) Chrome/74.0.3729.169 Safari/537.36"",""on_chrome"":true,""on_mobile"":false,""language"":""en-US"",""screen_resolution"":[1440,900],""platform"":""MacIntel"",""timezone"":""Europe/Berlin""}","29","1177.154999991972","","","1560417066734","7","","Erfurt","[]","Erfurt","true","false","1903.9500000071712"
"","html-voicekey-response","129","537506","0.0-4.125-0.125","e9bevj8cgynfgy9","{""user_agent"":""Mozilla/5.0 (Macintosh; Intel Mac OS X 10_14_4) AppleWebKit/537.36 (KHTML, like Gecko) Chrome/74.0.3729.169 Safari/537.36"",""on_chrome"":true,""on_mobile"":false,""language"":""en-US"",""screen_resolution"":[1440,900],""platform"":""MacIntel"",""timezone"":""Europe/Berlin""}","29","1153.8899999957998","","","1560417069241","20","","Hamburg ","[]","Hamburg ","true","false","1762.6899999741"
"","html-voicekey-response","130","551841","0.0-4.126-0.126","e9bevj8cgynfgy9","{""user_agent"":""Mozilla/5.0 (Macintosh; Intel Mac OS X 10_14_4) AppleWebKit/537.36 (KHTML, like Gecko) Chrome/74.0.3729.169 Safari/537.36"",""on_chrome"":true,""on_mobile"":false,""language"":""en-US"",""screen_resolution"":[1440,900],""platform"":""MacIntel"",""timezone"":""Europe/Berlin""}","29","3172.209999998659","","","1560417071606","18","","","[]","Forchheim","false","false","10331.780000007711"
"","html-voicekey-response","131","554916","0.0-4.127-0.127","e9bevj8cgynfgy9","{""user_agent"":""Mozilla/5.0 (Macintosh; Intel Mac OS X 10_14_4) AppleWebKit/537.36 (KHTML, like Gecko) Chrome/74.0.3729.169 Safari/537.36"",""on_chrome"":true,""on_mobile"":false,""language"":""en-US"",""screen_resolution"":[1440,900],""platform"":""MacIntel"",""timezone"":""Europe/Berlin""}","29","1830.6799999935088","","","1560417085940","11","","Alfeld","[]","Alfeld","true","false","2473.6250000132713"
"","html-voicekey-response","132","557218","0.0-4.128-0.128","e9bevj8cgynfgy9","{""user_agent"":""Mozilla/5.0 (Macintosh; Intel Mac OS X 10_14_4) AppleWebKit/537.36 (KHTML, like Gecko) Chrome/74.0.3729.169 Safari/537.36"",""on_chrome"":true,""on_mobile"":false,""language"":""en-US"",""screen_resolution"":[1440,900],""platform"":""MacIntel"",""timezone"":""Europe/Berlin""}","29","1021.2599999884609","","","1560417089017","18","","Forchheim","[]","Forchheim","true","false","1698.724999994738"
"","html-voicekey-response","133","560494","0.0-4.129-0.129","e9bevj8cgynfgy9","{""user_agent"":""Mozilla/5.0 (Macintosh; Intel Mac OS X 10_14_4) AppleWebKit/537.36 (KHTML, like Gecko) Chrome/74.0.3729.169 Safari/537.36"",""on_chrome"":true,""on_mobile"":false,""language"":""en-US"",""screen_resolution"":[1440,900],""platform"":""MacIntel"",""timezone"":""Europe/Berlin""}","29","2101.5149999964983","","","1560417091320","26","","Freiburg","[]","Freiburg","true","false","2669.7149999963585"
"","html-voicekey-response","134","563562","0.0-4.130-0.130","e9bevj8cgynfgy9","{""user_agent"":""Mozilla/5.0 (Macintosh; Intel Mac OS X 10_14_4) AppleWebKit/537.36 (KHTML, like Gecko) Chrome/74.0.3729.169 Safari/537.36"",""on_chrome"":true,""on_mobile"":false,""language"":""en-US"",""screen_resolution"":[1440,900],""platform"":""MacIntel"",""timezone"":""Europe/Berlin""}","29","1754.750000001723","","","1560417094594","23","","Stuttgart","[]","Stuttgart","true","false","2463.900000002468"
"","html-voicekey-response","135","574261","0.0-4.131-0.131","e9bevj8cgynfgy9","{""user_agent"":""Mozilla/5.0 (Macintosh; Intel Mac OS X 10_14_4) AppleWebKit/537.36 (KHTML, like Gecko) Chrome/74.0.3729.169 Safari/537.36"",""on_chrome"":true,""on_mobile"":false,""language"":""en-US"",""screen_resolution"":[1440,900],""platform"":""MacIntel"",""timezone"":""Europe/Berlin""}","29","4983.87999999416","","","1560417097664","3","","","[]","Ingolstadt","false","false","6693.6599999899045"
"","html-voicekey-response","136","576535","0.0-4.132-0.132","e9bevj8cgynfgy9","{""user_agent"":""Mozilla/5.0 (Macintosh; Intel Mac OS X 10_14_4) AppleWebKit/537.36 (KHTML, like Gecko) Chrome/74.0.3729.169 Safari/537.36"",""on_chrome"":true,""on_mobile"":false,""language"":""en-US"",""screen_resolution"":[1440,900],""platform"":""MacIntel"",""timezone"":""Europe/Berlin""}","29","1194.2349999825005","","","1560417108363","24","","Köln","[]","Köln","true","false","1669.6999999985565"
"","html-voicekey-response","137","579235","0.0-4.133-0.133","e9bevj8cgynfgy9","{""user_agent"":""Mozilla/5.0 (Macintosh; Intel Mac OS X 10_14_4) AppleWebKit/537.36 (KHTML, like Gecko) Chrome/74.0.3729.169 Safari/537.36"",""on_chrome"":true,""on_mobile"":false,""language"":""en-US"",""screen_resolution"":[1440,900],""platform"":""MacIntel"",""timezone"":""Europe/Berlin""}","29","1469.2700000103564","","","1560417110638","22","","Bamberg","[]","Bamberg","true","false","2094.0750000008848"
"","html-voicekey-response","138","582905","0.0-4.134-0.134","e9bevj8cgynfgy9","{""user_agent"":""Mozilla/5.0 (Macintosh; Intel Mac OS X 10_14_4) AppleWebKit/537.36 (KHTML, like Gecko) Chrome/74.0.3729.169 Safari/537.36"",""on_chrome"":true,""on_mobile"":false,""language"":""en-US"",""screen_resolution"":[1440,900],""platform"":""MacIntel"",""timezone"":""Europe/Berlin""}","29","2254.1299999955577","","","1560417113337","25","","Osnabrück","[]","Osnabrück","true","false","3062.8599999763537"
"","html-voicekey-response","139","585493","0.0-4.135-0.135","e9bevj8cgynfgy9","{""user_agent"":""Mozilla/5.0 (Macintosh; Intel Mac OS X 10_14_4) AppleWebKit/537.36 (KHTML, like Gecko) Chrome/74.0.3729.169 Safari/537.36"",""on_chrome"":true,""on_mobile"":false,""language"":""en-US"",""screen_resolution"":[1440,900],""platform"":""MacIntel"",""timezone"":""Europe/Berlin""}","29","1392.130000001844","","","1560417117007","30","","Bremen","[]","Bremen","true","false","1983.2299999834504"
"","html-voicekey-response","140","587977","0.0-4.136-0.136","e9bevj8cgynfgy9","{""user_agent"":""Mozilla/5.0 (Macintosh; Intel Mac OS X 10_14_4) AppleWebKit/537.36 (KHTML, like Gecko) Chrome/74.0.3729.169 Safari/537.36"",""on_chrome"":true,""on_mobile"":false,""language"":""en-US"",""screen_resolution"":[1440,900],""platform"":""MacIntel"",""timezone"":""Europe/Berlin""}","29","1271.450000009127","","","1560417119594","27","","Tübingen","[]","Tübingen","true","false","1879.9850000068545"
"","html-voicekey-response","141","591710","0.0-4.137-0.137","e9bevj8cgynfgy9","{""user_agent"":""Mozilla/5.0 (Macintosh; Intel Mac OS X 10_14_4) AppleWebKit/537.36 (KHTML, like Gecko) Chrome/74.0.3729.169 Safari/537.36"",""on_chrome"":true,""on_mobile"":false,""language"":""en-US"",""screen_resolution"":[1440,900],""platform"":""MacIntel"",""timezone"":""Europe/Berlin""}","29","2367.7500000138302","","","1560417122080","18","","Forchheim","[]","Forchheim","true","false","3126.6450000111945"
"","html-voicekey-response","142","603651","0.0-4.138-0.138","e9bevj8cgynfgy9","{""user_agent"":""Mozilla/5.0 (Macintosh; Intel Mac OS X 10_14_4) AppleWebKit/537.36 (KHTML, like Gecko) Chrome/74.0.3729.169 Safari/537.36"",""on_chrome"":true,""on_mobile"":false,""language"":""en-US"",""screen_resolution"":[1440,900],""platform"":""MacIntel"",""timezone"":""Europe/Berlin""}","29","5967.0349999886","","","1560417125815","26","","","[]","Freiburg","false","false","7933.460000000196"
"","html-voicekey-response","143","605729","0.0-4.139-0.139","e9bevj8cgynfgy9","{""user_agent"":""Mozilla/5.0 (Macintosh; Intel Mac OS X 10_14_4) AppleWebKit/537.36 (KHTML, like Gecko) Chrome/74.0.3729.169 Safari/537.36"",""on_chrome"":true,""on_mobile"":false,""language"":""en-US"",""screen_resolution"":[1440,900],""platform"":""MacIntel"",""timezone"":""Europe/Berlin""}","29","1019.360000014631","","","1560417137753","29","","Jena","[]","Jena","true","false","1472.5450000260025"
"","html-voicekey-response","144","608447","0.0-4.140-0.140","e9bevj8cgynfgy9","{""user_agent"":""Mozilla/5.0 (Macintosh; Intel Mac OS X 10_14_4) AppleWebKit/537.36 (KHTML, like Gecko) Chrome/74.0.3729.169 Safari/537.36"",""on_chrome"":true,""on_mobile"":false,""language"":""en-US"",""screen_resolution"":[1440,900],""platform"":""MacIntel"",""timezone"":""Europe/Berlin""}","29","1351.90499999756","","","1560417139831","28","","Regensburg","[]","Regensburg","true","false","2112.0450000162236"
"","html-voicekey-response","145","611179","0.0-4.141-0.141","e9bevj8cgynfgy9","{""user_agent"":""Mozilla/5.0 (Macintosh; Intel Mac OS X 10_14_4) AppleWebKit/537.36 (KHTML, like Gecko) Chrome/74.0.3729.169 Safari/537.36"",""on_chrome"":true,""on_mobile"":false,""language"":""en-US"",""screen_resolution"":[1440,900],""platform"":""MacIntel"",""timezone"":""Europe/Berlin""}","29","1351.8449999772479","","","1560417142550","18","","Forchheim","[]","Forchheim","true","false","2126.609999977518"
"","html-voicekey-response","146","621131","0.0-4.142-0.142","e9bevj8cgynfgy9","{""user_agent"":""Mozilla/5.0 (Macintosh; Intel Mac OS X 10_14_4) AppleWebKit/537.36 (KHTML, like Gecko) Chrome/74.0.3729.169 Safari/537.36"",""on_chrome"":true,""on_mobile"":false,""language"":""en-US"",""screen_resolution"":[1440,900],""platform"":""MacIntel"",""timezone"":""Europe/Berlin""}","29","3134.9299999800046","","","1560417145283","26","","","[]","Freiburg","false","false","5943.310000002384"
"","html-voicekey-response","147","634587","0.0-4.143-0.143","e9bevj8cgynfgy9","{""user_agent"":""Mozilla/5.0 (Macintosh; Intel Mac OS X 10_14_4) AppleWebKit/537.36 (KHTML, like Gecko) Chrome/74.0.3729.169 Safari/537.36"",""on_chrome"":true,""on_mobile"":false,""language"":""en-US"",""screen_resolution"":[1440,900],""platform"":""MacIntel"",""timezone"":""Europe/Berlin""}","29","8806.910000022826","","","1560417155234","3","","","[]","Ingolstadt","false","false","9449.41000000108"
"","html-voicekey-response","148","637166","0.0-4.144-0.144","e9bevj8cgynfgy9","{""user_agent"":""Mozilla/5.0 (Macintosh; Intel Mac OS X 10_14_4) AppleWebKit/537.36 (KHTML, like Gecko) Chrome/74.0.3729.169 Safari/537.36"",""on_chrome"":true,""on_mobile"":false,""language"":""en-US"",""screen_resolution"":[1440,900],""platform"":""MacIntel"",""timezone"":""Europe/Berlin""}","29","1330.6700000046753","","","1560417168690","18","","Forchheim","[]","Forchheim","true","false","1972.9999999981374"
"","html-voicekey-response","149","644499","0.0-4.145-0.145","e9bevj8cgynfgy9","{""user_agent"":""Mozilla/5.0 (Macintosh; Intel Mac OS X 10_14_4) AppleWebKit/537.36 (KHTML, like Gecko) Chrome/74.0.3729.169 Safari/537.36"",""on_chrome"":true,""on_mobile"":false,""language"":""en-US"",""screen_resolution"":[1440,900],""platform"":""MacIntel"",""timezone"":""Europe/Berlin""}","29","1902.5749999944587","","","1560417171269","26","","","[]","Freiburg","false","false","3327.580000011949"
"","html-voicekey-response","150","647891","0.0-4.146-0.146","e9bevj8cgynfgy9","{""user_agent"":""Mozilla/5.0 (Macintosh; Intel Mac OS X 10_14_4) AppleWebKit/537.36 (KHTML, like Gecko) Chrome/74.0.3729.169 Safari/537.36"",""on_chrome"":true,""on_mobile"":false,""language"":""en-US"",""screen_resolution"":[1440,900],""platform"":""MacIntel"",""timezone"":""Europe/Berlin""}","29","1826.0499999831432","","","1560417178602","3","","Ingolstadt","[]","Ingolstadt","true","false","2785.329999984242"
"","html-voicekey-response","151","651473","0.0-4.147-0.147","e9bevj8cgynfgy9","{""user_agent"":""Mozilla/5.0 (Macintosh; Intel Mac OS X 10_14_4) AppleWebKit/537.36 (KHTML, like Gecko) Chrome/74.0.3729.169 Safari/537.36"",""on_chrome"":true,""on_mobile"":false,""language"":""en-US"",""screen_resolution"":[1440,900],""platform"":""MacIntel"",""timezone"":""Europe/Berlin""}","29","2166.6750000238885","","","1560417181994","26","","Freiburg","[]","Freiburg","true","false","2976.0800000221934"
"","html-voicekey-response","152","660482","0.0-4.148-0.148","e9bevj8cgynfgy9","{""user_agent"":""Mozilla/5.0 (Macintosh; Intel Mac OS X 10_14_4) AppleWebKit/537.36 (KHTML, like Gecko) Chrome/74.0.3729.169 Safari/537.36"",""on_chrome"":true,""on_mobile"":false,""language"":""en-US"",""screen_resolution"":[1440,900],""platform"":""MacIntel"",""timezone"":""Europe/Berlin""}","29","4193.559999994095","","","1560417185577","22","","","[]","Bamberg","false","false","5002.154999994673"
"","html-voicekey-response","153","668299","0.0-4.149-0.149","e9bevj8cgynfgy9","{""user_agent"":""Mozilla/5.0 (Macintosh; Intel Mac OS X 10_14_4) AppleWebKit/537.36 (KHTML, like Gecko) Chrome/74.0.3729.169 Safari/537.36"",""on_chrome"":true,""on_mobile"":false,""language"":""en-US"",""screen_resolution"":[1440,900],""platform"":""MacIntel"",""timezone"":""Europe/Berlin""}","29","2817.944999996899","","","1560417194586","26","","","[]","Freiburg","false","false","3809.305000002496"
"","html-voicekey-response","154","672526","0.0-4.150-0.150","e9bevj8cgynfgy9","{""user_agent"":""Mozilla/5.0 (Macintosh; Intel Mac OS X 10_14_4) AppleWebKit/537.36 (KHTML, like Gecko) Chrome/74.0.3729.169 Safari/537.36"",""on_chrome"":true,""on_mobile"":false,""language"":""en-US"",""screen_resolution"":[1440,900],""platform"":""MacIntel"",""timezone"":""Europe/Berlin""}","29","2896.084999994701","","","1560417202403","3","","Ingolstadt","[]","Ingolstadt","true","false","3620.939999993425"
"","html-voicekey-response","155","680477","0.0-4.151-0.151","e9bevj8cgynfgy9","{""user_agent"":""Mozilla/5.0 (Macintosh; Intel Mac OS X 10_14_4) AppleWebKit/537.36 (KHTML, like Gecko) Chrome/74.0.3729.169 Safari/537.36"",""on_chrome"":true,""on_mobile"":false,""language"":""en-US"",""screen_resolution"":[1440,900],""platform"":""MacIntel"",""timezone"":""Europe/Berlin""}","29","2667.7049999796786","","","1560417206631","26","","","[]","Freiburg","false","false","3942.3449999885634"
"","html-voicekey-response","156","683270","0.0-4.152-0.152","e9bevj8cgynfgy9","{""user_agent"":""Mozilla/5.0 (Macintosh; Intel Mac OS X 10_14_4) AppleWebKit/537.36 (KHTML, like Gecko) Chrome/74.0.3729.169 Safari/537.36"",""on_chrome"":true,""on_mobile"":false,""language"":""en-US"",""screen_resolution"":[1440,900],""platform"":""MacIntel"",""timezone"":""Europe/Berlin""}","29","100","","","1560417214581","3","","Ingolstadt","[]","Ingolstadt","true","false","2185.024999984307"
"","html-voicekey-response","157","685503","0.0-4.153-0.153","e9bevj8cgynfgy9","{""user_agent"":""Mozilla/5.0 (Macintosh; Intel Mac OS X 10_14_4) AppleWebKit/537.36 (KHTML, like Gecko) Chrome/74.0.3729.169 Safari/537.36"",""on_chrome"":true,""on_mobile"":false,""language"":""en-US"",""screen_resolution"":[1440,900],""platform"":""MacIntel"",""timezone"":""Europe/Berlin""}","29","1001.3850000194274","","","1560417217374","26","","Freiburg","[]","Freiburg","true","false","1626.2149999965914"
"","html-voicekey-response","158","688548","0.0-4.154-0.154","e9bevj8cgynfgy9","{""user_agent"":""Mozilla/5.0 (Macintosh; Intel Mac OS X 10_14_4) AppleWebKit/537.36 (KHTML, like Gecko) Chrome/74.0.3729.169 Safari/537.36"",""on_chrome"":true,""on_mobile"":false,""language"":""en-US"",""screen_resolution"":[1440,900],""platform"":""MacIntel"",""timezone"":""Europe/Berlin""}","29","1933.6949999941048","","","1560417219608","23","","Stuttgart","[]","Stuttgart","true","false","2436.760000011418"
"","html-voicekey-response","159","692213","0.0-4.155-0.155","e9bevj8cgynfgy9","{""user_agent"":""Mozilla/5.0 (Macintosh; Intel Mac OS X 10_14_4) AppleWebKit/537.36 (KHTML, like Gecko) Chrome/74.0.3729.169 Safari/537.36"",""on_chrome"":true,""on_mobile"":false,""language"":""en-US"",""screen_resolution"":[1440,900],""platform"":""MacIntel"",""timezone"":""Europe/Berlin""}","29","2565.809999979893","","","1560417222652","26","","Freiburg","[]","Freiburg","true","false","3058.1700000038836"
"","html-voicekey-response","160","694864","0.0-4.156-0.156","e9bevj8cgynfgy9","{""user_agent"":""Mozilla/5.0 (Macintosh; Intel Mac OS X 10_14_4) AppleWebKit/537.36 (KHTML, like Gecko) Chrome/74.0.3729.169 Safari/537.36"",""on_chrome"":true,""on_mobile"":false,""language"":""en-US"",""screen_resolution"":[1440,900],""platform"":""MacIntel"",""timezone"":""Europe/Berlin""}","29","1300.6749999857043","","","1560417226318","18","","Forchheim","[]","Forchheim","true","false","2043.1649999809451"
"","html-voicekey-response","161","698014","0.0-4.157-0.157","e9bevj8cgynfgy9","{""user_agent"":""Mozilla/5.0 (Macintosh; Intel Mac OS X 10_14_4) AppleWebKit/537.36 (KHTML, like Gecko) Chrome/74.0.3729.169 Safari/537.36"",""on_chrome"":true,""on_mobile"":false,""language"":""en-US"",""screen_resolution"":[1440,900],""platform"":""MacIntel"",""timezone"":""Europe/Berlin""}","29","1949.6149999993854","","","1560417228969","26","","Freiburg","[]","Freiburg","true","false","2540.769999992335"
"","html-voicekey-response","162","701604","0.0-4.158-0.158","e9bevj8cgynfgy9","{""user_agent"":""Mozilla/5.0 (Macintosh; Intel Mac OS X 10_14_4) AppleWebKit/537.36 (KHTML, like Gecko) Chrome/74.0.3729.169 Safari/537.36"",""on_chrome"":true,""on_mobile"":false,""language"":""en-US"",""screen_resolution"":[1440,900],""platform"":""MacIntel"",""timezone"":""Europe/Berlin""}","29","2055.944999979902","","","1560417232120","3","","Ingolstadt","[]","Ingolstadt","true","false","2981.7999999795575"
"","html-voicekey-response","163","704571","0.0-4.159-0.159","e9bevj8cgynfgy9","{""user_agent"":""Mozilla/5.0 (Macintosh; Intel Mac OS X 10_14_4) AppleWebKit/537.36 (KHTML, like Gecko) Chrome/74.0.3729.169 Safari/537.36"",""on_chrome"":true,""on_mobile"":false,""language"":""en-US"",""screen_resolution"":[1440,900],""platform"":""MacIntel"",""timezone"":""Europe/Berlin""}","29","1800.6649999968708","","","1560417235709","26","","Freiburg","[]","Freiburg","true","false","2359.3650000111666"
"","html-voicekey-response","164","711939","0.0-4.160-0.160","e9bevj8cgynfgy9","{""user_agent"":""Mozilla/5.0 (Macintosh; Intel Mac OS X 10_14_4) AppleWebKit/537.36 (KHTML, like Gecko) Chrome/74.0.3729.169 Safari/537.36"",""on_chrome"":true,""on_mobile"":false,""language"":""en-US"",""screen_resolution"":[1440,900],""platform"":""MacIntel"",""timezone"":""Europe/Berlin""}","29","5898.274999993946","","","1560417238677","3","","Ingolstadt","[]","Ingolstadt","true","false","6757.484999980079"
"","html-voicekey-response","165","715249","0.0-4.161-0.161","e9bevj8cgynfgy9","{""user_agent"":""Mozilla/5.0 (Macintosh; Intel Mac OS X 10_14_4) AppleWebKit/537.36 (KHTML, like Gecko) Chrome/74.0.3729.169 Safari/537.36"",""on_chrome"":true,""on_mobile"":false,""language"":""en-US"",""screen_resolution"":[1440,900],""platform"":""MacIntel"",""timezone"":""Europe/Berlin""}","29","2142.804999990249","","","1560417246045","26","","Freiburg","[]","Freiburg","true","false","2701.535000000149"
"","html-voicekey-response","166","717349","0.0-4.162-0.162","e9bevj8cgynfgy9","{""user_agent"":""Mozilla/5.0 (Macintosh; Intel Mac OS X 10_14_4) AppleWebKit/537.36 (KHTML, like Gecko) Chrome/74.0.3729.169 Safari/537.36"",""on_chrome"":true,""on_mobile"":false,""language"":""en-US"",""screen_resolution"":[1440,900],""platform"":""MacIntel"",""timezone"":""Europe/Berlin""}","29","1033.0400000182913","","","1560417249354","3","","Ingolstadt","[]","Ingolstadt","true","false","1492.0900000142865"
"","html-voicekey-response","167","719532","0.0-4.163-0.163","e9bevj8cgynfgy9","{""user_agent"":""Mozilla/5.0 (Macintosh; Intel Mac OS X 10_14_4) AppleWebKit/537.36 (KHTML, like Gecko) Chrome/74.0.3729.169 Safari/537.36"",""on_chrome"":true,""on_mobile"":false,""language"":""en-US"",""screen_resolution"":[1440,900],""platform"":""MacIntel"",""timezone"":""Europe/Berlin""}","29","999.4600000007543","","","1560417251455","26","","Freiburg","[]","Freiburg","true","false","1574.7700000065379"
"","html-voicekey-response","168","722135","0.0-4.164-0.164","e9bevj8cgynfgy9","{""user_agent"":""Mozilla/5.0 (Macintosh; Intel Mac OS X 10_14_4) AppleWebKit/537.36 (KHTML, like Gecko) Chrome/74.0.3729.169 Safari/537.36"",""on_chrome"":true,""on_mobile"":false,""language"":""en-US"",""screen_resolution"":[1440,900],""platform"":""MacIntel"",""timezone"":""Europe/Berlin""}","29","1365.2300000047312","","","1560417253639","22","","Bamberg","[]","Bamberg","true","false","1990.2750000183005"
"","html-voicekey-response","169","725224","0.0-4.165-0.165","e9bevj8cgynfgy9","{""user_agent"":""Mozilla/5.0 (Macintosh; Intel Mac OS X 10_14_4) AppleWebKit/537.36 (KHTML, like Gecko) Chrome/74.0.3729.169 Safari/537.36"",""on_chrome"":true,""on_mobile"":false,""language"":""en-US"",""screen_resolution"":[1440,900],""platform"":""MacIntel"",""timezone"":""Europe/Berlin""}","29","1920.3699999869336","","","1560417256242","26","","Freiburg","[]","Freiburg","true","false","2478.8899999985006"
"","html-voicekey-response","170","727440","0.0-4.166-0.166","e9bevj8cgynfgy9","{""user_agent"":""Mozilla/5.0 (Macintosh; Intel Mac OS X 10_14_4) AppleWebKit/537.36 (KHTML, like Gecko) Chrome/74.0.3729.169 Safari/537.36"",""on_chrome"":true,""on_mobile"":false,""language"":""en-US"",""screen_resolution"":[1440,900],""platform"":""MacIntel"",""timezone"":""Europe/Berlin""}","29","1047.9250000006055","","","1560417259331","7","","Erfurt","[]","Erfurt","true","false","1606.4600000099745"
"","html-voicekey-response","171","731707","0.0-4.167-0.167","e9bevj8cgynfgy9","{""user_agent"":""Mozilla/5.0 (Macintosh; Intel Mac OS X 10_14_4) AppleWebKit/537.36 (KHTML, like Gecko) Chrome/74.0.3729.169 Safari/537.36"",""on_chrome"":true,""on_mobile"":false,""language"":""en-US"",""screen_resolution"":[1440,900],""platform"":""MacIntel"",""timezone"":""Europe/Berlin""}","29","3133.4249999871013","","","1560417261545","26","","Freiburg","[]","Freiburg","true","false","3658.804999984568"
"","html-voicekey-response","172","740449","0.0-4.168-0.168","e9bevj8cgynfgy9","{""user_agent"":""Mozilla/5.0 (Macintosh; Intel Mac OS X 10_14_4) AppleWebKit/537.36 (KHTML, like Gecko) Chrome/74.0.3729.169 Safari/537.36"",""on_chrome"":true,""on_mobile"":false,""language"":""en-US"",""screen_resolution"":[1440,900],""platform"":""MacIntel"",""timezone"":""Europe/Berlin""}","29","2223.4799999949523","","","1560417265814","3","","","[]","Ingolstadt","false","false","4730.879999988247"
"","html-voicekey-response","173","743784","0.0-4.169-0.169","e9bevj8cgynfgy9","{""user_agent"":""Mozilla/5.0 (Macintosh; Intel Mac OS X 10_14_4) AppleWebKit/537.36 (KHTML, like Gecko) Chrome/74.0.3729.169 Safari/537.36"",""on_chrome"":true,""on_mobile"":false,""language"":""en-US"",""screen_resolution"":[1440,900],""platform"":""MacIntel"",""timezone"":""Europe/Berlin""}","29","2180.460000012163","","","1560417274555","26","","Freiburg","[]","Freiburg","true","false","2723.715000000084"
"","html-voicekey-response","174","745972","0.0-4.170-0.170","e9bevj8cgynfgy9","{""user_agent"":""Mozilla/5.0 (Macintosh; Intel Mac OS X 10_14_4) AppleWebKit/537.36 (KHTML, like Gecko) Chrome/74.0.3729.169 Safari/537.36"",""on_chrome"":true,""on_mobile"":false,""language"":""en-US"",""screen_resolution"":[1440,900],""platform"":""MacIntel"",""timezone"":""Europe/Berlin""}","29","969.1300000211689","","","1560417277891","2","","Berlin","[]","Berlin","true","false","1578.0150000064168"
"","html-voicekey-response","175","748507","0.0-4.171-0.171","e9bevj8cgynfgy9","{""user_agent"":""Mozilla/5.0 (Macintosh; Intel Mac OS X 10_14_4) AppleWebKit/537.36 (KHTML, like Gecko) Chrome/74.0.3729.169 Safari/537.36"",""on_chrome"":true,""on_mobile"":false,""language"":""en-US"",""screen_resolution"":[1440,900],""platform"":""MacIntel"",""timezone"":""Europe/Berlin""}","29","1331.0499999877998","","","1560417280080","26","","Freiburg","[]","Freiburg","true","false","1923.5350000089966"
"","html-voicekey-response","176","753256","0.0-4.172-0.172","e9bevj8cgynfgy9","{""user_agent"":""Mozilla/5.0 (Macintosh; Intel Mac OS X 10_14_4) AppleWebKit/537.36 (KHTML, like Gecko) Chrome/74.0.3729.169 Safari/537.36"",""on_chrome"":true,""on_mobile"":false,""language"":""en-US"",""screen_resolution"":[1440,900],""platform"":""MacIntel"",""timezone"":""Europe/Berlin""}","29","3297.724999991106","","","1560417282613","3","","Ingolstadt","[]","Ingolstadt","true","false","4139.364999980899"
"","html-voicekey-response","177","755597","0.0-4.173-0.173","e9bevj8cgynfgy9","{""user_agent"":""Mozilla/5.0 (Macintosh; Intel Mac OS X 10_14_4) AppleWebKit/537.36 (KHTML, like Gecko) Chrome/74.0.3729.169 Safari/537.36"",""on_chrome"":true,""on_mobile"":false,""language"":""en-US"",""screen_resolution"":[1440,900],""platform"":""MacIntel"",""timezone"":""Europe/Berlin""}","29","1198.81999999946","","","1560417287363","26","","Freiburg","[]","Freiburg","true","false","1731.4600000099745"
"","html-voicekey-response","178","757663","0.0-4.174-0.174","e9bevj8cgynfgy9","{""user_agent"":""Mozilla/5.0 (Macintosh; Intel Mac OS X 10_14_4) AppleWebKit/537.36 (KHTML, like Gecko) Chrome/74.0.3729.169 Safari/537.36"",""on_chrome"":true,""on_mobile"":false,""language"":""en-US"",""screen_resolution"":[1440,900],""platform"":""MacIntel"",""timezone"":""Europe/Berlin""}","29","732.845000000298","","","1560417289703","3","","Ingolstadt","[]","Ingolstadt","true","false","1457.0050000038464"
"","html-voicekey-response","179","760097","0.0-4.175-0.175","e9bevj8cgynfgy9","{""user_agent"":""Mozilla/5.0 (Macintosh; Intel Mac OS X 10_14_4) AppleWebKit/537.36 (KHTML, like Gecko) Chrome/74.0.3729.169 Safari/537.36"",""on_chrome"":true,""on_mobile"":false,""language"":""en-US"",""screen_resolution"":[1440,900],""platform"":""MacIntel"",""timezone"":""Europe/Berlin""}","29","998.0149999990593","","","1560417291772","26","","Freiburg","[]","Freiburg","true","false","1822.8200000012293"
"","html-voicekey-response","180","764865","0.0-4.176-0.176","e9bevj8cgynfgy9","{""user_agent"":""Mozilla/5.0 (Macintosh; Intel Mac OS X 10_14_4) AppleWebKit/537.36 (KHTML, like Gecko) Chrome/74.0.3729.169 Safari/537.36"",""on_chrome"":true,""on_mobile"":false,""language"":""en-US"",""screen_resolution"":[1440,900],""platform"":""MacIntel"",""timezone"":""Europe/Berlin""}","29","3382.075000010291","","","1560417294203","11","","Alfeld","[]","Alfeld","true","false","4157.390000007581"
"","html-voicekey-response","181","767626","0.0-4.177-0.177","e9bevj8cgynfgy9","{""user_agent"":""Mozilla/5.0 (Macintosh; Intel Mac OS X 10_14_4) AppleWebKit/537.36 (KHTML, like Gecko) Chrome/74.0.3729.169 Safari/537.36"",""on_chrome"":true,""on_mobile"":false,""language"":""en-US"",""screen_resolution"":[1440,900],""platform"":""MacIntel"",""timezone"":""Europe/Berlin""}","29","1606.0849999865518","","","1560417298975","26","","Freiburg","[]","Freiburg","true","false","2148.235000000568"
"","html-voicekey-response","182","770959","0.0-4.178-0.178","e9bevj8cgynfgy9","{""user_agent"":""Mozilla/5.0 (Macintosh; Intel Mac OS X 10_14_4) AppleWebKit/537.36 (KHTML, like Gecko) Chrome/74.0.3729.169 Safari/537.36"",""on_chrome"":true,""on_mobile"":false,""language"":""en-US"",""screen_resolution"":[1440,900],""platform"":""MacIntel"",""timezone"":""Europe/Berlin""}","29","1897.6999999811874","","","1560417301733","3","","Ingolstadt","[]","Ingolstadt","true","false","2723.154999985127"
"","html-voicekey-response","183","773242","0.0-4.179-0.179","e9bevj8cgynfgy9","{""user_agent"":""Mozilla/5.0 (Macintosh; Intel Mac OS X 10_14_4) AppleWebKit/537.36 (KHTML, like Gecko) Chrome/74.0.3729.169 Safari/537.36"",""on_chrome"":true,""on_mobile"":false,""language"":""en-US"",""screen_resolution"":[1440,900],""platform"":""MacIntel"",""timezone"":""Europe/Berlin""}","29","945.6650000154972","","","1560417305068","26","","Freiburg","[]","Freiburg","true","false","1670.6100000010338"
"","html-voicekey-response","184","775877","0.0-4.180-0.180","e9bevj8cgynfgy9","{""user_agent"":""Mozilla/5.0 (Macintosh; Intel Mac OS X 10_14_4) AppleWebKit/537.36 (KHTML, like Gecko) Chrome/74.0.3729.169 Safari/537.36"",""on_chrome"":true,""on_mobile"":false,""language"":""en-US"",""screen_resolution"":[1440,900],""platform"":""MacIntel"",""timezone"":""Europe/Berlin""}","29","1130.4700000126381","","","1560417307350","3","","Ingolstadt","[]","Ingolstadt","true","false","2021.6050000162795"
"","html-voicekey-response","185","778485","0.0-4.181-0.181","e9bevj8cgynfgy9","{""user_agent"":""Mozilla/5.0 (Macintosh; Intel Mac OS X 10_14_4) AppleWebKit/537.36 (KHTML, like Gecko) Chrome/74.0.3729.169 Safari/537.36"",""on_chrome"":true,""on_mobile"":false,""language"":""en-US"",""screen_resolution"":[1440,900],""platform"":""MacIntel"",""timezone"":""Europe/Berlin""}","29","1420.4249999982771","","","1560417309985","25","","Osnabrück","[]","Osnabrück","true","false","1996.5700000175275"
"","html-voicekey-response","186","784200","0.0-4.182-0.182","e9bevj8cgynfgy9","{""user_agent"":""Mozilla/5.0 (Macintosh; Intel Mac OS X 10_14_4) AppleWebKit/537.36 (KHTML, like Gecko) Chrome/74.0.3729.169 Safari/537.36"",""on_chrome"":true,""on_mobile"":false,""language"":""en-US"",""screen_resolution"":[1440,900],""platform"":""MacIntel"",""timezone"":""Europe/Berlin""}","29","Infinity","","","1560417312592","3","","Ingolstadt","[]","Ingolstadt","true","false","5105.424999987008"
"","html-voicekey-response","187","786701","0.0-4.183-0.183","e9bevj8cgynfgy9","{""user_agent"":""Mozilla/5.0 (Macintosh; Intel Mac OS X 10_14_4) AppleWebKit/537.36 (KHTML, like Gecko) Chrome/74.0.3729.169 Safari/537.36"",""on_chrome"":true,""on_mobile"":false,""language"":""en-US"",""screen_resolution"":[1440,900],""platform"":""MacIntel"",""timezone"":""Europe/Berlin""}","29","1279.2100000168198","","","1560417318309","1","","Magdeburg","[]","Magdeburg","true","false","1886.8899999943096"
"","html-voicekey-response","188","790225","0.0-4.184-0.184","e9bevj8cgynfgy9","{""user_agent"":""Mozilla/5.0 (Macintosh; Intel Mac OS X 10_14_4) AppleWebKit/537.36 (KHTML, like Gecko) Chrome/74.0.3729.169 Safari/537.36"",""on_chrome"":true,""on_mobile"":false,""language"":""en-US"",""screen_resolution"":[1440,900],""platform"":""MacIntel"",""timezone"":""Europe/Berlin""}","29","2236.955000009248","","","1560417320810","3","","Ingolstadt","[]","Ingolstadt","true","false","2911.885000008624"
"","html-voicekey-response","189","792424","0.0-4.185-0.185","e9bevj8cgynfgy9","{""user_agent"":""Mozilla/5.0 (Macintosh; Intel Mac OS X 10_14_4) AppleWebKit/537.36 (KHTML, like Gecko) Chrome/74.0.3729.169 Safari/537.36"",""on_chrome"":true,""on_mobile"":false,""language"":""en-US"",""screen_resolution"":[1440,900],""platform"":""MacIntel"",""timezone"":""Europe/Berlin""}","29","914.2950000039767","","","1560417324333","26","","Freiburg","[]","Freiburg","true","false","1589.2950000124983"
"","html-voicekey-response","190","794957","0.0-4.186-0.186","e9bevj8cgynfgy9","{""user_agent"":""Mozilla/5.0 (Macintosh; Intel Mac OS X 10_14_4) AppleWebKit/537.36 (KHTML, like Gecko) Chrome/74.0.3729.169 Safari/537.36"",""on_chrome"":true,""on_mobile"":false,""language"":""en-US"",""screen_resolution"":[1440,900],""platform"":""MacIntel"",""timezone"":""Europe/Berlin""}","29","1313.3500000202098","","","1560417326533","11","","Alfeld","[]","Alfeld","true","false","1921.2900000275113"
"","html-voicekey-response","191","799752","0.0-4.187-0.187","e9bevj8cgynfgy9","{""user_agent"":""Mozilla/5.0 (Macintosh; Intel Mac OS X 10_14_4) AppleWebKit/537.36 (KHTML, like Gecko) Chrome/74.0.3729.169 Safari/537.36"",""on_chrome"":true,""on_mobile"":false,""language"":""en-US"",""screen_resolution"":[1440,900],""platform"":""MacIntel"",""timezone"":""Europe/Berlin""}","29","3481.5899999901653","","","1560417329065","3","","Ingolstadt","[]","Ingolstadt","true","false","4185.070000006817"
"","html-voicekey-response","192","801953","0.0-4.188-0.188","e9bevj8cgynfgy9","{""user_agent"":""Mozilla/5.0 (Macintosh; Intel Mac OS X 10_14_4) AppleWebKit/537.36 (KHTML, like Gecko) Chrome/74.0.3729.169 Safari/537.36"",""on_chrome"":true,""on_mobile"":false,""language"":""en-US"",""screen_resolution"":[1440,900],""platform"":""MacIntel"",""timezone"":""Europe/Berlin""}","29","1092.799999992922","","","1560417333865","22","","Bamberg","[]","Bamberg","true","false","1585.304999985965"
"","html-voicekey-response","193","804836","0.0-4.189-0.189","e9bevj8cgynfgy9","{""user_agent"":""Mozilla/5.0 (Macintosh; Intel Mac OS X 10_14_4) AppleWebKit/537.36 (KHTML, like Gecko) Chrome/74.0.3729.169 Safari/537.36"",""on_chrome"":true,""on_mobile"":false,""language"":""en-US"",""screen_resolution"":[1440,900],""platform"":""MacIntel"",""timezone"":""Europe/Berlin""}","29","1378.8150000126102","","","1560417336062","3","","Ingolstadt","[]","Ingolstadt","true","false","2270.7999999984168"
"","html-voicekey-response","194","807586","0.0-4.190-0.190","e9bevj8cgynfgy9","{""user_agent"":""Mozilla/5.0 (Macintosh; Intel Mac OS X 10_14_4) AppleWebKit/537.36 (KHTML, like Gecko) Chrome/74.0.3729.169 Safari/537.36"",""on_chrome"":true,""on_mobile"":false,""language"":""en-US"",""screen_resolution"":[1440,900],""platform"":""MacIntel"",""timezone"":""Europe/Berlin""}","29","1657.9899999868126","","","1560417338949","21","","Konstanz","[]","Konstanz","true","false","2134.9300000001676"
"","html-voicekey-response","195","809954","0.0-4.191-0.191","e9bevj8cgynfgy9","{""user_agent"":""Mozilla/5.0 (Macintosh; Intel Mac OS X 10_14_4) AppleWebKit/537.36 (KHTML, like Gecko) Chrome/74.0.3729.169 Safari/537.36"",""on_chrome"":true,""on_mobile"":false,""language"":""en-US"",""screen_resolution"":[1440,900],""platform"":""MacIntel"",""timezone"":""Europe/Berlin""}","29","1078.0949999842328","","","1560417341696","3","","Ingolstadt","[]","Ingolstadt","true","false","1753.33999999566"
"","html-voicekey-response","196","812195","0.0-4.192-0.192","e9bevj8cgynfgy9","{""user_agent"":""Mozilla/5.0 (Macintosh; Intel Mac OS X 10_14_4) AppleWebKit/537.36 (KHTML, like Gecko) Chrome/74.0.3729.169 Safari/537.36"",""on_chrome"":true,""on_mobile"":false,""language"":""en-US"",""screen_resolution"":[1440,900],""platform"":""MacIntel"",""timezone"":""Europe/Berlin""}","29","1119.0799999838696","","","1560417344064","27","","Tübingen","[]","Tübingen","true","false","1627.714999980526"
