"value","trial_type","trial_index","time_elapsed","internal_node_id","subject","browser_info","participant_number","rt","responses","view_history","presentation_start_time","id","text","response","keypresses","answer","correct","study","experimenter_rt"
"","call-function","0","4","0.0-0.0","8lyqu6pcur07aut","{""user_agent"":""Mozilla/5.0 (Macintosh; Intel Mac OS X 10_14_4) AppleWebKit/537.36 (KHTML, like Gecko) Chrome/74.0.3729.131 Safari/537.36"",""on_chrome"":true,""on_mobile"":false,""language"":""en-US"",""screen_resolution"":[1440,900],""platform"":""MacIntel"",""timezone"":""Europe/Berlin""}","3","","","","","","","","","","","",""
"","survey-text","1","9189","0.0-1.0","8lyqu6pcur07aut","{""user_agent"":""Mozilla/5.0 (Macintosh; Intel Mac OS X 10_14_4) AppleWebKit/537.36 (KHTML, like Gecko) Chrome/74.0.3729.131 Safari/537.36"",""on_chrome"":true,""on_mobile"":false,""language"":""en-US"",""screen_resolution"":[1440,900],""platform"":""MacIntel"",""timezone"":""Europe/Berlin""}","3","9184","{""Q0"":""3""}","","","","","","","","","",""
"","instructions","2","126371","0.0-2.0","8lyqu6pcur07aut","{""user_agent"":""Mozilla/5.0 (Macintosh; Intel Mac OS X 10_14_4) AppleWebKit/537.36 (KHTML, like Gecko) Chrome/74.0.3729.131 Safari/537.36"",""on_chrome"":true,""on_mobile"":false,""language"":""en-US"",""screen_resolution"":[1440,900],""platform"":""MacIntel"",""timezone"":""Europe/Berlin""}","3","117181","","[{""page_index"":0,""viewing_time"":117180}]","","","","","","","","",""
"","call-function","3","126371","0.0-3.0","8lyqu6pcur07aut","{""user_agent"":""Mozilla/5.0 (Macintosh; Intel Mac OS X 10_14_4) AppleWebKit/537.36 (KHTML, like Gecko) Chrome/74.0.3729.131 Safari/537.36"",""on_chrome"":true,""on_mobile"":false,""language"":""en-US"",""screen_resolution"":[1440,900],""platform"":""MacIntel"",""timezone"":""Europe/Berlin""}","3","","","","","","","","","","","",""
"","html-voicekey-response","4","128890","0.0-4.0-0.0","8lyqu6pcur07aut","{""user_agent"":""Mozilla/5.0 (Macintosh; Intel Mac OS X 10_14_4) AppleWebKit/537.36 (KHTML, like Gecko) Chrome/74.0.3729.131 Safari/537.36"",""on_chrome"":true,""on_mobile"":false,""language"":""en-US"",""screen_resolution"":[1440,900],""platform"":""MacIntel"",""timezone"":""Europe/Berlin""}","3","1408.8999999892899","","","1557915121411","1","","Magdeburg","[]","Magdeburg","true","true","1916.9799999945099"
"","html-voicekey-response","5","135306","0.0-4.1-0.1","8lyqu6pcur07aut","{""user_agent"":""Mozilla/5.0 (Macintosh; Intel Mac OS X 10_14_4) AppleWebKit/537.36 (KHTML, like Gecko) Chrome/74.0.3729.131 Safari/537.36"",""on_chrome"":true,""on_mobile"":false,""language"":""en-US"",""screen_resolution"":[1440,900],""platform"":""MacIntel"",""timezone"":""Europe/Berlin""}","3","5022.14499998975","","","1557915123931","1","","Magdeburg","[]","Magdeburg","true","false","5813.1349999894155"
"","html-voicekey-response","6","138091","0.0-4.2-0.2","8lyqu6pcur07aut","{""user_agent"":""Mozilla/5.0 (Macintosh; Intel Mac OS X 10_14_4) AppleWebKit/537.36 (KHTML, like Gecko) Chrome/74.0.3729.131 Safari/537.36"",""on_chrome"":true,""on_mobile"":false,""language"":""en-US"",""screen_resolution"":[1440,900],""platform"":""MacIntel"",""timezone"":""Europe/Berlin""}","3","1273.2400000039256","","","1557915130346","2","","Berlin","[]","Berlin","true","true","2181.7949999967823"
"","html-voicekey-response","7","142664","0.0-4.3-0.3","8lyqu6pcur07aut","{""user_agent"":""Mozilla/5.0 (Macintosh; Intel Mac OS X 10_14_4) AppleWebKit/537.36 (KHTML, like Gecko) Chrome/74.0.3729.131 Safari/537.36"",""on_chrome"":true,""on_mobile"":false,""language"":""en-US"",""screen_resolution"":[1440,900],""platform"":""MacIntel"",""timezone"":""Europe/Berlin""}","3","3312.400000004191","","","1557915133130","2","","Berlin","[]","Berlin","true","false","3971.720000001369"
"","html-voicekey-response","8","145847","0.0-4.4-0.4","8lyqu6pcur07aut","{""user_agent"":""Mozilla/5.0 (Macintosh; Intel Mac OS X 10_14_4) AppleWebKit/537.36 (KHTML, like Gecko) Chrome/74.0.3729.131 Safari/537.36"",""on_chrome"":true,""on_mobile"":false,""language"":""en-US"",""screen_resolution"":[1440,900],""platform"":""MacIntel"",""timezone"":""Europe/Berlin""}","3","1456.5149999924238","","","1557915137703","3","","Ingolstadt","[]","Ingolstadt","true","true","2581.7499999975553"
"","html-voicekey-response","9","149032","0.0-4.5-0.5","8lyqu6pcur07aut","{""user_agent"":""Mozilla/5.0 (Macintosh; Intel Mac OS X 10_14_4) AppleWebKit/537.36 (KHTML, like Gecko) Chrome/74.0.3729.131 Safari/537.36"",""on_chrome"":true,""on_mobile"":false,""language"":""en-US"",""screen_resolution"":[1440,900],""platform"":""MacIntel"",""timezone"":""Europe/Berlin""}","3","1389.3999999944122","","","1557915140887","4","","Würzburg","[]","Würzburg","true","true","2581.8549999967217"
"","html-voicekey-response","10","162405","0.0-4.6-0.6","8lyqu6pcur07aut","{""user_agent"":""Mozilla/5.0 (Macintosh; Intel Mac OS X 10_14_4) AppleWebKit/537.36 (KHTML, like Gecko) Chrome/74.0.3729.131 Safari/537.36"",""on_chrome"":true,""on_mobile"":false,""language"":""en-US"",""screen_resolution"":[1440,900],""platform"":""MacIntel"",""timezone"":""Europe/Berlin""}","3","8393.959999995632","","","1557915144072","3","","","[]","Ingolstadt","false","false","9370.364999995218"
"","html-voicekey-response","11","165796","0.0-4.7-0.7","8lyqu6pcur07aut","{""user_agent"":""Mozilla/5.0 (Macintosh; Intel Mac OS X 10_14_4) AppleWebKit/537.36 (KHTML, like Gecko) Chrome/74.0.3729.131 Safari/537.36"",""on_chrome"":true,""on_mobile"":false,""language"":""en-US"",""screen_resolution"":[1440,900],""platform"":""MacIntel"",""timezone"":""Europe/Berlin""}","3","2163.6899999956136","","","1557915157445","4","","Würzburg","[]","Würzburg","true","false","2789.4950000045355"
"","html-voicekey-response","12","168948","0.0-4.8-0.8","8lyqu6pcur07aut","{""user_agent"":""Mozilla/5.0 (Macintosh; Intel Mac OS X 10_14_4) AppleWebKit/537.36 (KHTML, like Gecko) Chrome/74.0.3729.131 Safari/537.36"",""on_chrome"":true,""on_mobile"":false,""language"":""en-US"",""screen_resolution"":[1440,900],""platform"":""MacIntel"",""timezone"":""Europe/Berlin""}","3","1856.7450000062586","","","1557915160836","1","","Magdeburg","[]","Magdeburg","true","false","2548.6500000115484"
"","html-voicekey-response","13","172903","0.0-4.9-0.9","8lyqu6pcur07aut","{""user_agent"":""Mozilla/5.0 (Macintosh; Intel Mac OS X 10_14_4) AppleWebKit/537.36 (KHTML, like Gecko) Chrome/74.0.3729.131 Safari/537.36"",""on_chrome"":true,""on_mobile"":false,""language"":""en-US"",""screen_resolution"":[1440,900],""platform"":""MacIntel"",""timezone"":""Europe/Berlin""}","3","2544.465000007977","","","1557915163988","5","","Aachen","[]","Aachen","true","true","3353.2200000045123"
"","html-voicekey-response","14","175370","0.0-4.10-0.10","8lyqu6pcur07aut","{""user_agent"":""Mozilla/5.0 (Macintosh; Intel Mac OS X 10_14_4) AppleWebKit/537.36 (KHTML, like Gecko) Chrome/74.0.3729.131 Safari/537.36"",""on_chrome"":true,""on_mobile"":false,""language"":""en-US"",""screen_resolution"":[1440,900],""platform"":""MacIntel"",""timezone"":""Europe/Berlin""}","3","1156.6399999954506","","","1557915167943","6","","Dresden","[]","Dresden","true","true","1865.3299999859883"
"","html-voicekey-response","15","182586","0.0-4.11-0.11","8lyqu6pcur07aut","{""user_agent"":""Mozilla/5.0 (Macintosh; Intel Mac OS X 10_14_4) AppleWebKit/537.36 (KHTML, like Gecko) Chrome/74.0.3729.131 Safari/537.36"",""on_chrome"":true,""on_mobile"":false,""language"":""en-US"",""screen_resolution"":[1440,900],""platform"":""MacIntel"",""timezone"":""Europe/Berlin""}","3","1938.750000010105","","","1557915170410","5","","","[]","Aachen","false","false","3214.25000000454"
"","html-voicekey-response","16","185142","0.0-4.12-0.12","8lyqu6pcur07aut","{""user_agent"":""Mozilla/5.0 (Macintosh; Intel Mac OS X 10_14_4) AppleWebKit/537.36 (KHTML, like Gecko) Chrome/74.0.3729.131 Safari/537.36"",""on_chrome"":true,""on_mobile"":false,""language"":""en-US"",""screen_resolution"":[1440,900],""platform"":""MacIntel"",""timezone"":""Europe/Berlin""}","3","1344.8849999930012","","","1557915177627","6","","Dresden","[]","Dresden","true","false","1953.7899999995716"
"","html-voicekey-response","17","187576","0.0-4.13-0.13","8lyqu6pcur07aut","{""user_agent"":""Mozilla/5.0 (Macintosh; Intel Mac OS X 10_14_4) AppleWebKit/537.36 (KHTML, like Gecko) Chrome/74.0.3729.131 Safari/537.36"",""on_chrome"":true,""on_mobile"":false,""language"":""en-US"",""screen_resolution"":[1440,900],""platform"":""MacIntel"",""timezone"":""Europe/Berlin""}","3","1222.23000000834","","","1557915180182","2","","Berlin","[]","Berlin","true","false","1832.1350000042003"
"","html-voicekey-response","18","191342","0.0-4.14-0.14","8lyqu6pcur07aut","{""user_agent"":""Mozilla/5.0 (Macintosh; Intel Mac OS X 10_14_4) AppleWebKit/537.36 (KHTML, like Gecko) Chrome/74.0.3729.131 Safari/537.36"",""on_chrome"":true,""on_mobile"":false,""language"":""en-US"",""screen_resolution"":[1440,900],""platform"":""MacIntel"",""timezone"":""Europe/Berlin""}","3","2288.2900000057184","","","1557915182616","7","","Erfurt","[]","Erfurt","true","true","3163.6100000032457"
"","html-voicekey-response","19","194303","0.0-4.15-0.15","8lyqu6pcur07aut","{""user_agent"":""Mozilla/5.0 (Macintosh; Intel Mac OS X 10_14_4) AppleWebKit/537.36 (KHTML, like Gecko) Chrome/74.0.3729.131 Safari/537.36"",""on_chrome"":true,""on_mobile"":false,""language"":""en-US"",""screen_resolution"":[1440,900],""platform"":""MacIntel"",""timezone"":""Europe/Berlin""}","3","1400.3400000018069","","","1557915186382","8","","Gotha","[]","Gotha","true","true","2358.749999999418"
"","html-voicekey-response","20","197786","0.0-4.16-0.16","8lyqu6pcur07aut","{""user_agent"":""Mozilla/5.0 (Macintosh; Intel Mac OS X 10_14_4) AppleWebKit/537.36 (KHTML, like Gecko) Chrome/74.0.3729.131 Safari/537.36"",""on_chrome"":true,""on_mobile"":false,""language"":""en-US"",""screen_resolution"":[1440,900],""platform"":""MacIntel"",""timezone"":""Europe/Berlin""}","3","2205.66000000129","","","1557915189343","7","","Erfurt","[]","Erfurt","true","false","2880.6100000074366"
"","html-voicekey-response","21","200820","0.0-4.17-0.17","8lyqu6pcur07aut","{""user_agent"":""Mozilla/5.0 (Macintosh; Intel Mac OS X 10_14_4) AppleWebKit/537.36 (KHTML, like Gecko) Chrome/74.0.3729.131 Safari/537.36"",""on_chrome"":true,""on_mobile"":false,""language"":""en-US"",""screen_resolution"":[1440,900],""platform"":""MacIntel"",""timezone"":""Europe/Berlin""}","3","1689.4050000062912","","","1557915192826","8","","Gotha","[]","Gotha","true","false","2432.215000008"
"","html-voicekey-response","22","207928","0.0-4.18-0.18","8lyqu6pcur07aut","{""user_agent"":""Mozilla/5.0 (Macintosh; Intel Mac OS X 10_14_4) AppleWebKit/537.36 (KHTML, like Gecko) Chrome/74.0.3729.131 Safari/537.36"",""on_chrome"":true,""on_mobile"":false,""language"":""en-US"",""screen_resolution"":[1440,900],""platform"":""MacIntel"",""timezone"":""Europe/Berlin""}","3","2497.094999993197","","","1557915195860","3","","","[]","Ingolstadt","false","false","3106.0100000031525"
"","html-voicekey-response","23","210794","0.0-4.19-0.19","8lyqu6pcur07aut","{""user_agent"":""Mozilla/5.0 (Macintosh; Intel Mac OS X 10_14_4) AppleWebKit/537.36 (KHTML, like Gecko) Chrome/74.0.3729.131 Safari/537.36"",""on_chrome"":true,""on_mobile"":false,""language"":""en-US"",""screen_resolution"":[1440,900],""platform"":""MacIntel"",""timezone"":""Europe/Berlin""}","3","1256.2350000024076","","","1557915202967","9","","München","[]","München","true","true","2264.609999998356"
"","html-voicekey-response","24","214102","0.0-4.20-0.20","8lyqu6pcur07aut","{""user_agent"":""Mozilla/5.0 (Macintosh; Intel Mac OS X 10_14_4) AppleWebKit/537.36 (KHTML, like Gecko) Chrome/74.0.3729.131 Safari/537.36"",""on_chrome"":true,""on_mobile"":false,""language"":""en-US"",""screen_resolution"":[1440,900],""platform"":""MacIntel"",""timezone"":""Europe/Berlin""}","3","1588.6799999951386","","","1557915205834","10","","Heidelberg","[]","Heidelberg","true","true","2705.9299999964423"
"","html-voicekey-response","25","218435","0.0-4.21-0.21","8lyqu6pcur07aut","{""user_agent"":""Mozilla/5.0 (Macintosh; Intel Mac OS X 10_14_4) AppleWebKit/537.36 (KHTML, like Gecko) Chrome/74.0.3729.131 Safari/537.36"",""on_chrome"":true,""on_mobile"":false,""language"":""en-US"",""screen_resolution"":[1440,900],""platform"":""MacIntel"",""timezone"":""Europe/Berlin""}","3","3023.1750000037487","","","1557915209141","9","","München","[]","München","true","false","3731.5900000103284"
"","html-voicekey-response","26","222167","0.0-4.22-0.22","8lyqu6pcur07aut","{""user_agent"":""Mozilla/5.0 (Macintosh; Intel Mac OS X 10_14_4) AppleWebKit/537.36 (KHTML, like Gecko) Chrome/74.0.3729.131 Safari/537.36"",""on_chrome"":true,""on_mobile"":false,""language"":""en-US"",""screen_resolution"":[1440,900],""platform"":""MacIntel"",""timezone"":""Europe/Berlin""}","3","1487.8200000037673","","","1557915213475","10","","Heidelberg","[]","Heidelberg","true","false","3130.3550000011455"
"","html-voicekey-response","27","229678","0.0-4.23-0.23","8lyqu6pcur07aut","{""user_agent"":""Mozilla/5.0 (Macintosh; Intel Mac OS X 10_14_4) AppleWebKit/537.36 (KHTML, like Gecko) Chrome/74.0.3729.131 Safari/537.36"",""on_chrome"":true,""on_mobile"":false,""language"":""en-US"",""screen_resolution"":[1440,900],""platform"":""MacIntel"",""timezone"":""Europe/Berlin""}","3","2682.179999997816","","","1557915217208","4","","","[]","Würzburg","false","false","3507.2199999995064"
"","html-voicekey-response","28","241727","0.0-4.24-0.24","8lyqu6pcur07aut","{""user_agent"":""Mozilla/5.0 (Macintosh; Intel Mac OS X 10_14_4) AppleWebKit/537.36 (KHTML, like Gecko) Chrome/74.0.3729.131 Safari/537.36"",""on_chrome"":true,""on_mobile"":false,""language"":""en-US"",""screen_resolution"":[1440,900],""platform"":""MacIntel"",""timezone"":""Europe/Berlin""}","3","7321.729999990412","","","1557915224718","5","","","[]","Aachen","false","false","8047.1399999951245"
"","html-voicekey-response","29","245069","0.0-4.25-0.25","8lyqu6pcur07aut","{""user_agent"":""Mozilla/5.0 (Macintosh; Intel Mac OS X 10_14_4) AppleWebKit/537.36 (KHTML, like Gecko) Chrome/74.0.3729.131 Safari/537.36"",""on_chrome"":true,""on_mobile"":false,""language"":""en-US"",""screen_resolution"":[1440,900],""platform"":""MacIntel"",""timezone"":""Europe/Berlin""}","3","1947.5299999993063","","","1557915236768","6","","Dresden","[]","Dresden","true","false","2739.239999995334"
"","html-voicekey-response","30","250036","0.0-4.26-0.26","8lyqu6pcur07aut","{""user_agent"":""Mozilla/5.0 (Macintosh; Intel Mac OS X 10_14_4) AppleWebKit/537.36 (KHTML, like Gecko) Chrome/74.0.3729.131 Safari/537.36"",""on_chrome"":true,""on_mobile"":false,""language"":""en-US"",""screen_resolution"":[1440,900],""platform"":""MacIntel"",""timezone"":""Europe/Berlin""}","3","3673.064999989793","","","1557915240109","7","","Erfurt","[]","Erfurt","true","false","4364.504999990459"
"","html-voicekey-response","31","253461","0.0-4.27-0.27","8lyqu6pcur07aut","{""user_agent"":""Mozilla/5.0 (Macintosh; Intel Mac OS X 10_14_4) AppleWebKit/537.36 (KHTML, like Gecko) Chrome/74.0.3729.131 Safari/537.36"",""on_chrome"":true,""on_mobile"":false,""language"":""en-US"",""screen_resolution"":[1440,900],""platform"":""MacIntel"",""timezone"":""Europe/Berlin""}","3","1981.1049999933225","","","1557915245076","3","","Ingolstadt","[]","Ingolstadt","true","false","2822.164999990491"
"","html-voicekey-response","32","256794","0.0-4.28-0.28","8lyqu6pcur07aut","{""user_agent"":""Mozilla/5.0 (Macintosh; Intel Mac OS X 10_14_4) AppleWebKit/537.36 (KHTML, like Gecko) Chrome/74.0.3729.131 Safari/537.36"",""on_chrome"":true,""on_mobile"":false,""language"":""en-US"",""screen_resolution"":[1440,900],""platform"":""MacIntel"",""timezone"":""Europe/Berlin""}","3","1856.194999994687","","","1557915248501","8","","Gotha","[]","Gotha","true","false","2731.904999993276"
"","html-voicekey-response","33","259894","0.0-4.29-0.29","8lyqu6pcur07aut","{""user_agent"":""Mozilla/5.0 (Macintosh; Intel Mac OS X 10_14_4) AppleWebKit/537.36 (KHTML, like Gecko) Chrome/74.0.3729.131 Safari/537.36"",""on_chrome"":true,""on_mobile"":false,""language"":""en-US"",""screen_resolution"":[1440,900],""platform"":""MacIntel"",""timezone"":""Europe/Berlin""}","3","1423.750000010687","","","1557915251834","11","","Alfeld","[]","Alfeld","true","true","2498.3199999987846"
"","html-voicekey-response","34","263221","0.0-4.30-0.30","8lyqu6pcur07aut","{""user_agent"":""Mozilla/5.0 (Macintosh; Intel Mac OS X 10_14_4) AppleWebKit/537.36 (KHTML, like Gecko) Chrome/74.0.3729.131 Safari/537.36"",""on_chrome"":true,""on_mobile"":false,""language"":""en-US"",""screen_resolution"":[1440,900],""platform"":""MacIntel"",""timezone"":""Europe/Berlin""}","3","1965.1150000080002","","","1557915254935","9","","München","[]","München","true","false","2724.740000005113"
"","html-voicekey-response","35","266438","0.0-4.31-0.31","8lyqu6pcur07aut","{""user_agent"":""Mozilla/5.0 (Macintosh; Intel Mac OS X 10_14_4) AppleWebKit/537.36 (KHTML, like Gecko) Chrome/74.0.3729.131 Safari/537.36"",""on_chrome"":true,""on_mobile"":false,""language"":""en-US"",""screen_resolution"":[1440,900],""platform"":""MacIntel"",""timezone"":""Europe/Berlin""}","3","1538.3850000014995","","","1557915258262","11","","Alfeld","[]","Alfeld","true","false","2612.970000001951"
"","html-voicekey-response","36","269854","0.0-4.32-0.32","8lyqu6pcur07aut","{""user_agent"":""Mozilla/5.0 (Macintosh; Intel Mac OS X 10_14_4) AppleWebKit/537.36 (KHTML, like Gecko) Chrome/74.0.3729.131 Safari/537.36"",""on_chrome"":true,""on_mobile"":false,""language"":""en-US"",""screen_resolution"":[1440,900],""platform"":""MacIntel"",""timezone"":""Europe/Berlin""}","3","2189.5899999888848","","","1557915261478","4","","Würzburg","[]","Würzburg","true","false","2814.589999994496"
"","html-voicekey-response","37","273395","0.0-4.33-0.33","8lyqu6pcur07aut","{""user_agent"":""Mozilla/5.0 (Macintosh; Intel Mac OS X 10_14_4) AppleWebKit/537.36 (KHTML, like Gecko) Chrome/74.0.3729.131 Safari/537.36"",""on_chrome"":true,""on_mobile"":false,""language"":""en-US"",""screen_resolution"":[1440,900],""platform"":""MacIntel"",""timezone"":""Europe/Berlin""}","3","2072.87499999241","","","1557915264894","10","","Heidelberg","[]","Heidelberg","true","false","2939.0500000008615"
"","html-voicekey-response","38","279627","0.0-4.34-0.34","8lyqu6pcur07aut","{""user_agent"":""Mozilla/5.0 (Macintosh; Intel Mac OS X 10_14_4) AppleWebKit/537.36 (KHTML, like Gecko) Chrome/74.0.3729.131 Safari/537.36"",""on_chrome"":true,""on_mobile"":false,""language"":""en-US"",""screen_resolution"":[1440,900],""platform"":""MacIntel"",""timezone"":""Europe/Berlin""}","3","4688.070000012731","","","1557915268435","5","","Aachen","[]","Aachen","true","false","5630.240000013146"
"","html-voicekey-response","39","282077","0.0-4.35-0.35","8lyqu6pcur07aut","{""user_agent"":""Mozilla/5.0 (Macintosh; Intel Mac OS X 10_14_4) AppleWebKit/537.36 (KHTML, like Gecko) Chrome/74.0.3729.131 Safari/537.36"",""on_chrome"":true,""on_mobile"":false,""language"":""en-US"",""screen_resolution"":[1440,900],""platform"":""MacIntel"",""timezone"":""Europe/Berlin""}","3","723.1849999896716","","","1557915274667","12","","Dessau","[]","Dessau","true","true","1848.6099999863654"
"","html-voicekey-response","40","284801","0.0-4.36-0.36","8lyqu6pcur07aut","{""user_agent"":""Mozilla/5.0 (Macintosh; Intel Mac OS X 10_14_4) AppleWebKit/537.36 (KHTML, like Gecko) Chrome/74.0.3729.131 Safari/537.36"",""on_chrome"":true,""on_mobile"":false,""language"":""en-US"",""screen_resolution"":[1440,900],""platform"":""MacIntel"",""timezone"":""Europe/Berlin""}","3","1263.1799999888522","","","1557915277117","13","","Chemnitz","[]","Chemnitz","true","true","2121.805000002496"
"","html-voicekey-response","41","287851","0.0-4.37-0.37","8lyqu6pcur07aut","{""user_agent"":""Mozilla/5.0 (Macintosh; Intel Mac OS X 10_14_4) AppleWebKit/537.36 (KHTML, like Gecko) Chrome/74.0.3729.131 Safari/537.36"",""on_chrome"":true,""on_mobile"":false,""language"":""en-US"",""screen_resolution"":[1440,900],""platform"":""MacIntel"",""timezone"":""Europe/Berlin""}","3","1738.7749999996508","","","1557915279841","12","","Dessau","[]","Dessau","true","false","2447.6449999929173"
"","html-voicekey-response","42","290634","0.0-4.38-0.38","8lyqu6pcur07aut","{""user_agent"":""Mozilla/5.0 (Macintosh; Intel Mac OS X 10_14_4) AppleWebKit/537.36 (KHTML, like Gecko) Chrome/74.0.3729.131 Safari/537.36"",""on_chrome"":true,""on_mobile"":false,""language"":""en-US"",""screen_resolution"":[1440,900],""platform"":""MacIntel"",""timezone"":""Europe/Berlin""}","3","1122.3350000016858","","","1557915282891","13","","Chemnitz","[]","Chemnitz","true","false","2181.2300000019604"
"","html-voicekey-response","43","294641","0.0-4.39-0.39","8lyqu6pcur07aut","{""user_agent"":""Mozilla/5.0 (Macintosh; Intel Mac OS X 10_14_4) AppleWebKit/537.36 (KHTML, like Gecko) Chrome/74.0.3729.131 Safari/537.36"",""on_chrome"":true,""on_mobile"":false,""language"":""en-US"",""screen_resolution"":[1440,900],""platform"":""MacIntel"",""timezone"":""Europe/Berlin""}","3","2422.6799999976997","","","1557915285674","7","","Erfurt","[]","Erfurt","true","false","3405.4550000000745"
"","html-voicekey-response","44","301707","0.0-4.40-0.40","8lyqu6pcur07aut","{""user_agent"":""Mozilla/5.0 (Macintosh; Intel Mac OS X 10_14_4) AppleWebKit/537.36 (KHTML, like Gecko) Chrome/74.0.3729.131 Safari/537.36"",""on_chrome"":true,""on_mobile"":false,""language"":""en-US"",""screen_resolution"":[1440,900],""platform"":""MacIntel"",""timezone"":""Europe/Berlin""}","3","5756.080000000866","","","1557915289681","14","","Potsdam","[]","Potsdam","true","true","6464.289999988978"
"","html-voicekey-response","45","305814","0.0-4.41-0.41","8lyqu6pcur07aut","{""user_agent"":""Mozilla/5.0 (Macintosh; Intel Mac OS X 10_14_4) AppleWebKit/537.36 (KHTML, like Gecko) Chrome/74.0.3729.131 Safari/537.36"",""on_chrome"":true,""on_mobile"":false,""language"":""en-US"",""screen_resolution"":[1440,900],""platform"":""MacIntel"",""timezone"":""Europe/Berlin""}","3","2412.9849999970525","","","1557915296747","5","","Aachen","[]","Aachen","true","false","3505.024999991292"
"","html-voicekey-response","46","308815","0.0-4.42-0.42","8lyqu6pcur07aut","{""user_agent"":""Mozilla/5.0 (Macintosh; Intel Mac OS X 10_14_4) AppleWebKit/537.36 (KHTML, like Gecko) Chrome/74.0.3729.131 Safari/537.36"",""on_chrome"":true,""on_mobile"":false,""language"":""en-US"",""screen_resolution"":[1440,900],""platform"":""MacIntel"",""timezone"":""Europe/Berlin""}","3","1504.1599999911618","","","1557915300856","14","","Potsdam","[]","Potsdam","true","false","2397.034999987227"
"","html-voicekey-response","47","315698","0.0-4.43-0.43","8lyqu6pcur07aut","{""user_agent"":""Mozilla/5.0 (Macintosh; Intel Mac OS X 10_14_4) AppleWebKit/537.36 (KHTML, like Gecko) Chrome/74.0.3729.131 Safari/537.36"",""on_chrome"":true,""on_mobile"":false,""language"":""en-US"",""screen_resolution"":[1440,900],""platform"":""MacIntel"",""timezone"":""Europe/Berlin""}","3","1870.2350000038045","","","1557915303856","11","","","[]","Alfeld","false","false","2879.830000005313"
"","html-voicekey-response","48","318820","0.0-4.44-0.44","8lyqu6pcur07aut","{""user_agent"":""Mozilla/5.0 (Macintosh; Intel Mac OS X 10_14_4) AppleWebKit/537.36 (KHTML, like Gecko) Chrome/74.0.3729.131 Safari/537.36"",""on_chrome"":true,""on_mobile"":false,""language"":""en-US"",""screen_resolution"":[1440,900],""platform"":""MacIntel"",""timezone"":""Europe/Berlin""}","3","1344.309999994794","","","1557915310738","15","","Nürnberg","[]","Nürnberg","true","true","2519.654999996419"
"","html-voicekey-response","49","321803","0.0-4.45-0.45","8lyqu6pcur07aut","{""user_agent"":""Mozilla/5.0 (Macintosh; Intel Mac OS X 10_14_4) AppleWebKit/537.36 (KHTML, like Gecko) Chrome/74.0.3729.131 Safari/537.36"",""on_chrome"":true,""on_mobile"":false,""language"":""en-US"",""screen_resolution"":[1440,900],""platform"":""MacIntel"",""timezone"":""Europe/Berlin""}","3","1188.9650000028546","","","1557915313860","16","","Schwangau","[]","Schwangau","true","true","2380.5799999972805"
"","html-voicekey-response","50","324576","0.0-4.46-0.46","8lyqu6pcur07aut","{""user_agent"":""Mozilla/5.0 (Macintosh; Intel Mac OS X 10_14_4) AppleWebKit/537.36 (KHTML, like Gecko) Chrome/74.0.3729.131 Safari/537.36"",""on_chrome"":true,""on_mobile"":false,""language"":""en-US"",""screen_resolution"":[1440,900],""platform"":""MacIntel"",""timezone"":""Europe/Berlin""}","3","1190.1650000016439","","","1557915316843","15","","Nürnberg","[]","Nürnberg","true","false","2172.000000005937"
"","html-voicekey-response","51","327144","0.0-4.47-0.47","8lyqu6pcur07aut","{""user_agent"":""Mozilla/5.0 (Macintosh; Intel Mac OS X 10_14_4) AppleWebKit/537.36 (KHTML, like Gecko) Chrome/74.0.3729.131 Safari/537.36"",""on_chrome"":true,""on_mobile"":false,""language"":""en-US"",""screen_resolution"":[1440,900],""platform"":""MacIntel"",""timezone"":""Europe/Berlin""}","3","1089.4400000050432","","","1557915319617","16","","Schwangau","[]","Schwangau","true","false","1965.0150000088615"
"","html-voicekey-response","52","334126","0.0-4.48-0.48","8lyqu6pcur07aut","{""user_agent"":""Mozilla/5.0 (Macintosh; Intel Mac OS X 10_14_4) AppleWebKit/537.36 (KHTML, like Gecko) Chrome/74.0.3729.131 Safari/537.36"",""on_chrome"":true,""on_mobile"":false,""language"":""en-US"",""screen_resolution"":[1440,900],""platform"":""MacIntel"",""timezone"":""Europe/Berlin""}","3","2172.675000003283","","","1557915322184","12","","","[]","Dessau","false","false","2980.729999995674"
"","html-voicekey-response","53","337434","0.0-4.49-0.49","8lyqu6pcur07aut","{""user_agent"":""Mozilla/5.0 (Macintosh; Intel Mac OS X 10_14_4) AppleWebKit/537.36 (KHTML, like Gecko) Chrome/74.0.3729.131 Safari/537.36"",""on_chrome"":true,""on_mobile"":false,""language"":""en-US"",""screen_resolution"":[1440,900],""platform"":""MacIntel"",""timezone"":""Europe/Berlin""}","3","2122.8349999963307","","","1557915329167","13","","Chemnitz","[]","Chemnitz","true","false","2705.57999999437"
"","html-voicekey-response","54","346834","0.0-4.50-0.50","8lyqu6pcur07aut","{""user_agent"":""Mozilla/5.0 (Macintosh; Intel Mac OS X 10_14_4) AppleWebKit/537.36 (KHTML, like Gecko) Chrome/74.0.3729.131 Safari/537.36"",""on_chrome"":true,""on_mobile"":false,""language"":""en-US"",""screen_resolution"":[1440,900],""platform"":""MacIntel"",""timezone"":""Europe/Berlin""}","3","4571.990000005671","","","1557915332474","3","","","[]","Ingolstadt","false","false","5398.520000002463"
"","html-voicekey-response","55","354013","0.0-4.51-0.51","8lyqu6pcur07aut","{""user_agent"":""Mozilla/5.0 (Macintosh; Intel Mac OS X 10_14_4) AppleWebKit/537.36 (KHTML, like Gecko) Chrome/74.0.3729.131 Safari/537.36"",""on_chrome"":true,""on_mobile"":false,""language"":""en-US"",""screen_resolution"":[1440,900],""platform"":""MacIntel"",""timezone"":""Europe/Berlin""}","3","2422.3650000002003","","","1557915341874","5","","","[]","Aachen","false","false","3176.7800000088755"
"","html-voicekey-response","56","361947","0.0-4.52-0.52","8lyqu6pcur07aut","{""user_agent"":""Mozilla/5.0 (Macintosh; Intel Mac OS X 10_14_4) AppleWebKit/537.36 (KHTML, like Gecko) Chrome/74.0.3729.131 Safari/537.36"",""on_chrome"":true,""on_mobile"":false,""language"":""en-US"",""screen_resolution"":[1440,900],""platform"":""MacIntel"",""timezone"":""Europe/Berlin""}","3","3054.679999995488","","","1557915349053","11","","","[]","Alfeld","false","false","3930.800000001909"
"","html-voicekey-response","57","364585","0.0-4.53-0.53","8lyqu6pcur07aut","{""user_agent"":""Mozilla/5.0 (Macintosh; Intel Mac OS X 10_14_4) AppleWebKit/537.36 (KHTML, like Gecko) Chrome/74.0.3729.131 Safari/537.36"",""on_chrome"":true,""on_mobile"":false,""language"":""en-US"",""screen_resolution"":[1440,900],""platform"":""MacIntel"",""timezone"":""Europe/Berlin""}","3","1260.9750000063564","","","1557915356987","14","","Potsdam","[]","Potsdam","true","false","2035.9450000105426"
"","html-voicekey-response","58","367684","0.0-4.54-0.54","8lyqu6pcur07aut","{""user_agent"":""Mozilla/5.0 (Macintosh; Intel Mac OS X 10_14_4) AppleWebKit/537.36 (KHTML, like Gecko) Chrome/74.0.3729.131 Safari/537.36"",""on_chrome"":true,""on_mobile"":false,""language"":""en-US"",""screen_resolution"":[1440,900],""platform"":""MacIntel"",""timezone"":""Europe/Berlin""}","3","1522.5200000075624","","","1557915359625","17","","Leipzig","[]","Leipzig","true","true","2497.365000002901"
"","html-voicekey-response","59","375877","0.0-4.55-0.55","8lyqu6pcur07aut","{""user_agent"":""Mozilla/5.0 (Macintosh; Intel Mac OS X 10_14_4) AppleWebKit/537.36 (KHTML, like Gecko) Chrome/74.0.3729.131 Safari/537.36"",""on_chrome"":true,""on_mobile"":false,""language"":""en-US"",""screen_resolution"":[1440,900],""platform"":""MacIntel"",""timezone"":""Europe/Berlin""}","3","3240.455000000866","","","1557915362724","15","","","[]","Nürnberg","false","false","4190.730000002077"
"","html-voicekey-response","60","378909","0.0-4.56-0.56","8lyqu6pcur07aut","{""user_agent"":""Mozilla/5.0 (Macintosh; Intel Mac OS X 10_14_4) AppleWebKit/537.36 (KHTML, like Gecko) Chrome/74.0.3729.131 Safari/537.36"",""on_chrome"":true,""on_mobile"":false,""language"":""en-US"",""screen_resolution"":[1440,900],""platform"":""MacIntel"",""timezone"":""Europe/Berlin""}","3","1689.0900000087918","","","1557915370917","17","","Leipzig","[]","Leipzig","true","false","2430.2199999947334"
"","html-voicekey-response","61","384950","0.0-4.57-0.57","8lyqu6pcur07aut","{""user_agent"":""Mozilla/5.0 (Macintosh; Intel Mac OS X 10_14_4) AppleWebKit/537.36 (KHTML, like Gecko) Chrome/74.0.3729.131 Safari/537.36"",""on_chrome"":true,""on_mobile"":false,""language"":""en-US"",""screen_resolution"":[1440,900],""platform"":""MacIntel"",""timezone"":""Europe/Berlin""}","3","4847.254999994975","","","1557915373949","12","","Dessau","[]","Dessau","true","false","5439.440000001923"
"","html-voicekey-response","62","387567","0.0-4.58-0.58","8lyqu6pcur07aut","{""user_agent"":""Mozilla/5.0 (Macintosh; Intel Mac OS X 10_14_4) AppleWebKit/537.36 (KHTML, like Gecko) Chrome/74.0.3729.131 Safari/537.36"",""on_chrome"":true,""on_mobile"":false,""language"":""en-US"",""screen_resolution"":[1440,900],""platform"":""MacIntel"",""timezone"":""Europe/Berlin""}","3","1222.1249999946217","","","1557915379990","16","","Schwangau","[]","Schwangau","true","false","2015.369999993709"
"","html-voicekey-response","63","391250","0.0-4.59-0.59","8lyqu6pcur07aut","{""user_agent"":""Mozilla/5.0 (Macintosh; Intel Mac OS X 10_14_4) AppleWebKit/537.36 (KHTML, like Gecko) Chrome/74.0.3729.131 Safari/537.36"",""on_chrome"":true,""on_mobile"":false,""language"":""en-US"",""screen_resolution"":[1440,900],""platform"":""MacIntel"",""timezone"":""Europe/Berlin""}","3","2189.154999994417","","","1557915382607","3","","Ingolstadt","[]","Ingolstadt","true","false","3080.7499999937136"
"","html-voicekey-response","64","394078","0.0-4.60-0.60","8lyqu6pcur07aut","{""user_agent"":""Mozilla/5.0 (Macintosh; Intel Mac OS X 10_14_4) AppleWebKit/537.36 (KHTML, like Gecko) Chrome/74.0.3729.131 Safari/537.36"",""on_chrome"":true,""on_mobile"":false,""language"":""en-US"",""screen_resolution"":[1440,900],""platform"":""MacIntel"",""timezone"":""Europe/Berlin""}","3","1649.66499999885","","","1557915386291","5","","Aachen","[]","Aachen","true","false","2225.7950000057463"
"","html-voicekey-response","65","402779","0.0-4.61-0.61","8lyqu6pcur07aut","{""user_agent"":""Mozilla/5.0 (Macintosh; Intel Mac OS X 10_14_4) AppleWebKit/537.36 (KHTML, like Gecko) Chrome/74.0.3729.131 Safari/537.36"",""on_chrome"":true,""on_mobile"":false,""language"":""en-US"",""screen_resolution"":[1440,900],""platform"":""MacIntel"",""timezone"":""Europe/Berlin""}","3","4123.03500000583","","","1557915389118","11","","","[]","Alfeld","false","false","4699.090000009164"
"","html-voicekey-response","66","406285","0.0-4.62-0.62","8lyqu6pcur07aut","{""user_agent"":""Mozilla/5.0 (Macintosh; Intel Mac OS X 10_14_4) AppleWebKit/537.36 (KHTML, like Gecko) Chrome/74.0.3729.131 Safari/537.36"",""on_chrome"":true,""on_mobile"":false,""language"":""en-US"",""screen_resolution"":[1440,900],""platform"":""MacIntel"",""timezone"":""Europe/Berlin""}","3","2153.9700000083308","","","1557915397820","7","","Erfurt","[]","Erfurt","true","false","2903.0900000070687"
"","html-voicekey-response","67","410301","0.0-4.63-0.63","8lyqu6pcur07aut","{""user_agent"":""Mozilla/5.0 (Macintosh; Intel Mac OS X 10_14_4) AppleWebKit/537.36 (KHTML, like Gecko) Chrome/74.0.3729.131 Safari/537.36"",""on_chrome"":true,""on_mobile"":false,""language"":""en-US"",""screen_resolution"":[1440,900],""platform"":""MacIntel"",""timezone"":""Europe/Berlin""}","3","2754.8150000019","","","1557915401325","12","","Dessau","[]","Dessau","true","false","3414.3500000063796"
"","html-voicekey-response","68","413334","0.0-4.64-0.64","8lyqu6pcur07aut","{""user_agent"":""Mozilla/5.0 (Macintosh; Intel Mac OS X 10_14_4) AppleWebKit/537.36 (KHTML, like Gecko) Chrome/74.0.3729.131 Safari/537.36"",""on_chrome"":true,""on_mobile"":false,""language"":""en-US"",""screen_resolution"":[1440,900],""platform"":""MacIntel"",""timezone"":""Europe/Berlin""}","3","1405.2549999995158","","","1557915405341","15","","Nürnberg","[]","Nürnberg","true","false","2430.755000008503"
"","html-voicekey-response","69","416557","0.0-4.65-0.65","8lyqu6pcur07aut","{""user_agent"":""Mozilla/5.0 (Macintosh; Intel Mac OS X 10_14_4) AppleWebKit/537.36 (KHTML, like Gecko) Chrome/74.0.3729.131 Safari/537.36"",""on_chrome"":true,""on_mobile"":false,""language"":""en-US"",""screen_resolution"":[1440,900],""platform"":""MacIntel"",""timezone"":""Europe/Berlin""}","3","1855.229999995418","","","1557915408376","11","","Alfeld","[]","Alfeld","true","false","2619.8099999892293"
"","html-voicekey-response","70","426774","0.0-4.66-0.66","8lyqu6pcur07aut","{""user_agent"":""Mozilla/5.0 (Macintosh; Intel Mac OS X 10_14_4) AppleWebKit/537.36 (KHTML, like Gecko) Chrome/74.0.3729.131 Safari/537.36"",""on_chrome"":true,""on_mobile"":false,""language"":""en-US"",""screen_resolution"":[1440,900],""platform"":""MacIntel"",""timezone"":""Europe/Berlin""}","3","5522.95500000203","","","1557915411597","4","","","[]","Würzburg","false","false","6214.804999995977"
"","html-voicekey-response","71","431485","0.0-4.67-0.67","8lyqu6pcur07aut","{""user_agent"":""Mozilla/5.0 (Macintosh; Intel Mac OS X 10_14_4) AppleWebKit/537.36 (KHTML, like Gecko) Chrome/74.0.3729.131 Safari/537.36"",""on_chrome"":true,""on_mobile"":false,""language"":""en-US"",""screen_resolution"":[1440,900],""platform"":""MacIntel"",""timezone"":""Europe/Berlin""}","3","3606.5400000023424","","","1557915421814","1","","Magdeburg","[]","Magdeburg","true","false","4109.395000006771"
"","html-voicekey-response","72","438569","0.0-4.68-0.68","8lyqu6pcur07aut","{""user_agent"":""Mozilla/5.0 (Macintosh; Intel Mac OS X 10_14_4) AppleWebKit/537.36 (KHTML, like Gecko) Chrome/74.0.3729.131 Safari/537.36"",""on_chrome"":true,""on_mobile"":false,""language"":""en-US"",""screen_resolution"":[1440,900],""platform"":""MacIntel"",""timezone"":""Europe/Berlin""}","3","2355.40500000373","","","1557915426525","12","","","[]","Dessau","false","false","3081.8399999989197"
"","html-voicekey-response","73","440959","0.0-4.69-0.69","8lyqu6pcur07aut","{""user_agent"":""Mozilla/5.0 (Macintosh; Intel Mac OS X 10_14_4) AppleWebKit/537.36 (KHTML, like Gecko) Chrome/74.0.3729.131 Safari/537.36"",""on_chrome"":true,""on_mobile"":false,""language"":""en-US"",""screen_resolution"":[1440,900],""platform"":""MacIntel"",""timezone"":""Europe/Berlin""}","3","1154.9899999898394","","","1557915433610","17","","Leipzig","[]","Leipzig","true","false","1787.4849999934668"
"","html-voicekey-response","74","443741","0.0-4.70-0.70","8lyqu6pcur07aut","{""user_agent"":""Mozilla/5.0 (Macintosh; Intel Mac OS X 10_14_4) AppleWebKit/537.36 (KHTML, like Gecko) Chrome/74.0.3729.131 Safari/537.36"",""on_chrome"":true,""on_mobile"":false,""language"":""en-US"",""screen_resolution"":[1440,900],""platform"":""MacIntel"",""timezone"":""Europe/Berlin""}","3","1455.5999999955297","","","1557915435999","2","","Berlin","[]","Berlin","true","false","2180.710000000545"
"","html-voicekey-response","75","446942","0.0-4.71-0.71","8lyqu6pcur07aut","{""user_agent"":""Mozilla/5.0 (Macintosh; Intel Mac OS X 10_14_4) AppleWebKit/537.36 (KHTML, like Gecko) Chrome/74.0.3729.131 Safari/537.36"",""on_chrome"":true,""on_mobile"":false,""language"":""en-US"",""screen_resolution"":[1440,900],""platform"":""MacIntel"",""timezone"":""Europe/Berlin""}","3","1673.4999999988127","","","1557915438781","18","","Forchheim","[]","Forchheim","true","true","2598.890000008396"
"","html-voicekey-response","76","449609","0.0-4.72-0.72","8lyqu6pcur07aut","{""user_agent"":""Mozilla/5.0 (Macintosh; Intel Mac OS X 10_14_4) AppleWebKit/537.36 (KHTML, like Gecko) Chrome/74.0.3729.131 Safari/537.36"",""on_chrome"":true,""on_mobile"":false,""language"":""en-US"",""screen_resolution"":[1440,900],""platform"":""MacIntel"",""timezone"":""Europe/Berlin""}","3","1238.4950000067242","","","1557915441983","19","","Frankfurt","[]","Frankfurt","true","true","2063.945000001695"
"","html-voicekey-response","77","452848","0.0-4.73-0.73","8lyqu6pcur07aut","{""user_agent"":""Mozilla/5.0 (Macintosh; Intel Mac OS X 10_14_4) AppleWebKit/537.36 (KHTML, like Gecko) Chrome/74.0.3729.131 Safari/537.36"",""on_chrome"":true,""on_mobile"":false,""language"":""en-US"",""screen_resolution"":[1440,900],""platform"":""MacIntel"",""timezone"":""Europe/Berlin""}","3","1927.2150000122842","","","1557915444650","18","","Forchheim","[]","Forchheim","true","false","2636.40000000305"
"","html-voicekey-response","78","455281","0.0-4.74-0.74","8lyqu6pcur07aut","{""user_agent"":""Mozilla/5.0 (Macintosh; Intel Mac OS X 10_14_4) AppleWebKit/537.36 (KHTML, like Gecko) Chrome/74.0.3729.131 Safari/537.36"",""on_chrome"":true,""on_mobile"":false,""language"":""en-US"",""screen_resolution"":[1440,900],""platform"":""MacIntel"",""timezone"":""Europe/Berlin""}","3","940.1749999904772","","","1557915447888","19","","Frankfurt","[]","Frankfurt","true","false","1831.0249999922235"
"","html-voicekey-response","79","462882","0.0-4.75-0.75","8lyqu6pcur07aut","{""user_agent"":""Mozilla/5.0 (Macintosh; Intel Mac OS X 10_14_4) AppleWebKit/537.36 (KHTML, like Gecko) Chrome/74.0.3729.131 Safari/537.36"",""on_chrome"":true,""on_mobile"":false,""language"":""en-US"",""screen_resolution"":[1440,900],""platform"":""MacIntel"",""timezone"":""Europe/Berlin""}","3","2823.175000006659","","","1557915450321","3","","","[]","Ingolstadt","false","false","3598.6900000134483"
"","html-voicekey-response","80","467643","0.0-4.76-0.76","8lyqu6pcur07aut","{""user_agent"":""Mozilla/5.0 (Macintosh; Intel Mac OS X 10_14_4) AppleWebKit/537.36 (KHTML, like Gecko) Chrome/74.0.3729.131 Safari/537.36"",""on_chrome"":true,""on_mobile"":false,""language"":""en-US"",""screen_resolution"":[1440,900],""platform"":""MacIntel"",""timezone"":""Europe/Berlin""}","3","3487.5899999986636","","","1557915457922","11","","Alfeld","[]","Alfeld","true","false","4159.119999996619"
"","html-voicekey-response","81","473193","0.0-4.77-0.77","8lyqu6pcur07aut","{""user_agent"":""Mozilla/5.0 (Macintosh; Intel Mac OS X 10_14_4) AppleWebKit/537.36 (KHTML, like Gecko) Chrome/74.0.3729.131 Safari/537.36"",""on_chrome"":true,""on_mobile"":false,""language"":""en-US"",""screen_resolution"":[1440,900],""platform"":""MacIntel"",""timezone"":""Europe/Berlin""}","3","4421.434999990952","","","1557915462684","4","","Würzburg","[]","Würzburg","true","false","4946.584999997867"
"","html-voicekey-response","82","476568","0.0-4.78-0.78","8lyqu6pcur07aut","{""user_agent"":""Mozilla/5.0 (Macintosh; Intel Mac OS X 10_14_4) AppleWebKit/537.36 (KHTML, like Gecko) Chrome/74.0.3729.131 Safari/537.36"",""on_chrome"":true,""on_mobile"":false,""language"":""en-US"",""screen_resolution"":[1440,900],""platform"":""MacIntel"",""timezone"":""Europe/Berlin""}","3","1904.6699999979232","","","1557915468234","12","","Dessau","[]","Dessau","true","false","2772.5700000009965"
"","html-voicekey-response","83","483552","0.0-4.79-0.79","8lyqu6pcur07aut","{""user_agent"":""Mozilla/5.0 (Macintosh; Intel Mac OS X 10_14_4) AppleWebKit/537.36 (KHTML, like Gecko) Chrome/74.0.3729.131 Safari/537.36"",""on_chrome"":true,""on_mobile"":false,""language"":""en-US"",""screen_resolution"":[1440,900],""platform"":""MacIntel"",""timezone"":""Europe/Berlin""}","3","2088.6149999949616","","","1557915471608","5","","","[]","Aachen","false","false","2981.4949999999953"
"","html-voicekey-response","84","486226","0.0-4.80-0.80","8lyqu6pcur07aut","{""user_agent"":""Mozilla/5.0 (Macintosh; Intel Mac OS X 10_14_4) AppleWebKit/537.36 (KHTML, like Gecko) Chrome/74.0.3729.131 Safari/537.36"",""on_chrome"":true,""on_mobile"":false,""language"":""en-US"",""screen_resolution"":[1440,900],""platform"":""MacIntel"",""timezone"":""Europe/Berlin""}","3","1254.3050000038697","","","1557915478592","20","","Hamburg ","[]","Hamburg ","true","true","2071.960000001127"
"","html-voicekey-response","85","488959","0.0-4.81-0.81","8lyqu6pcur07aut","{""user_agent"":""Mozilla/5.0 (Macintosh; Intel Mac OS X 10_14_4) AppleWebKit/537.36 (KHTML, like Gecko) Chrome/74.0.3729.131 Safari/537.36"",""on_chrome"":true,""on_mobile"":false,""language"":""en-US"",""screen_resolution"":[1440,900],""platform"":""MacIntel"",""timezone"":""Europe/Berlin""}","3","1138.4000000051224","","","1557915481266","21","","Konstanz","[]","Konstanz","true","true","2130.7749999978114"
"","html-voicekey-response","86","491625","0.0-4.82-0.82","8lyqu6pcur07aut","{""user_agent"":""Mozilla/5.0 (Macintosh; Intel Mac OS X 10_14_4) AppleWebKit/537.36 (KHTML, like Gecko) Chrome/74.0.3729.131 Safari/537.36"",""on_chrome"":true,""on_mobile"":false,""language"":""en-US"",""screen_resolution"":[1440,900],""platform"":""MacIntel"",""timezone"":""Europe/Berlin""}","3","1220.7149999974995","","","1557915484000","20","","Hamburg ","[]","Hamburg ","true","false","2062.4749999988126"
"","html-voicekey-response","87","493942","0.0-4.83-0.83","8lyqu6pcur07aut","{""user_agent"":""Mozilla/5.0 (Macintosh; Intel Mac OS X 10_14_4) AppleWebKit/537.36 (KHTML, like Gecko) Chrome/74.0.3729.131 Safari/537.36"",""on_chrome"":true,""on_mobile"":false,""language"":""en-US"",""screen_resolution"":[1440,900],""platform"":""MacIntel"",""timezone"":""Europe/Berlin""}","3","739.139999999525","","","1557915486666","21","","Konstanz","[]","Konstanz","true","false","1714.3050000013318"
"","html-voicekey-response","88","498782","0.0-4.84-0.84","8lyqu6pcur07aut","{""user_agent"":""Mozilla/5.0 (Macintosh; Intel Mac OS X 10_14_4) AppleWebKit/537.36 (KHTML, like Gecko) Chrome/74.0.3729.131 Safari/537.36"",""on_chrome"":true,""on_mobile"":false,""language"":""en-US"",""screen_resolution"":[1440,900],""platform"":""MacIntel"",""timezone"":""Europe/Berlin""}","3","3521.754999988689","","","1557915488982","11","","Alfeld","[]","Alfeld","true","false","4237.679999991087"
"","html-voicekey-response","89","507613","0.0-4.85-0.85","8lyqu6pcur07aut","{""user_agent"":""Mozilla/5.0 (Macintosh; Intel Mac OS X 10_14_4) AppleWebKit/537.36 (KHTML, like Gecko) Chrome/74.0.3729.131 Safari/537.36"",""on_chrome"":true,""on_mobile"":false,""language"":""en-US"",""screen_resolution"":[1440,900],""platform"":""MacIntel"",""timezone"":""Europe/Berlin""}","3","4137.559999997238","","","1557915493822","18","","","[]","Forchheim","false","false","4829.489999989164"
"","html-voicekey-response","90","510858","0.0-4.86-0.86","8lyqu6pcur07aut","{""user_agent"":""Mozilla/5.0 (Macintosh; Intel Mac OS X 10_14_4) AppleWebKit/537.36 (KHTML, like Gecko) Chrome/74.0.3729.131 Safari/537.36"",""on_chrome"":true,""on_mobile"":false,""language"":""en-US"",""screen_resolution"":[1440,900],""platform"":""MacIntel"",""timezone"":""Europe/Berlin""}","3","1990.0199999918464","","","1557915502654","19","","Frankfurt","[]","Frankfurt","true","false","2641.6749999916647"
"","html-voicekey-response","91","518758","0.0-4.87-0.87","8lyqu6pcur07aut","{""user_agent"":""Mozilla/5.0 (Macintosh; Intel Mac OS X 10_14_4) AppleWebKit/537.36 (KHTML, like Gecko) Chrome/74.0.3729.131 Safari/537.36"",""on_chrome"":true,""on_mobile"":false,""language"":""en-US"",""screen_resolution"":[1440,900],""platform"":""MacIntel"",""timezone"":""Europe/Berlin""}","3","3171.920000002347","","","1557915505899","5","","","[]","Aachen","false","false","3896.970000001602"
"","html-voicekey-response","92","524598","0.0-4.88-0.88","8lyqu6pcur07aut","{""user_agent"":""Mozilla/5.0 (Macintosh; Intel Mac OS X 10_14_4) AppleWebKit/537.36 (KHTML, like Gecko) Chrome/74.0.3729.131 Safari/537.36"",""on_chrome"":true,""on_mobile"":false,""language"":""en-US"",""screen_resolution"":[1440,900],""platform"":""MacIntel"",""timezone"":""Europe/Berlin""}","3","4722.500000012433","","","1557915513798","11","","Alfeld","[]","Alfeld","true","false","5237.820000009378"
"","html-voicekey-response","93","527764","0.0-4.89-0.89","8lyqu6pcur07aut","{""user_agent"":""Mozilla/5.0 (Macintosh; Intel Mac OS X 10_14_4) AppleWebKit/537.36 (KHTML, like Gecko) Chrome/74.0.3729.131 Safari/537.36"",""on_chrome"":true,""on_mobile"":false,""language"":""en-US"",""screen_resolution"":[1440,900],""platform"":""MacIntel"",""timezone"":""Europe/Berlin""}","3","154.23999999787193","","","1557915519639","4","","Würzburg","[]","Würzburg","true","false","2563.7799999967683"
"","html-voicekey-response","94","532531","0.0-4.90-0.90","8lyqu6pcur07aut","{""user_agent"":""Mozilla/5.0 (Macintosh; Intel Mac OS X 10_14_4) AppleWebKit/537.36 (KHTML, like Gecko) Chrome/74.0.3729.131 Safari/537.36"",""on_chrome"":true,""on_mobile"":false,""language"":""en-US"",""screen_resolution"":[1440,900],""platform"":""MacIntel"",""timezone"":""Europe/Berlin""}","3","3372.2750000104775","","","1557915522805","3","","Ingolstadt","[]","Ingolstadt","true","false","4164.055000001099"
"","html-voicekey-response","95","535725","0.0-4.91-0.91","8lyqu6pcur07aut","{""user_agent"":""Mozilla/5.0 (Macintosh; Intel Mac OS X 10_14_4) AppleWebKit/537.36 (KHTML, like Gecko) Chrome/74.0.3729.131 Safari/537.36"",""on_chrome"":true,""on_mobile"":false,""language"":""en-US"",""screen_resolution"":[1440,900],""platform"":""MacIntel"",""timezone"":""Europe/Berlin""}","3","1665.384999994631","","","1557915527572","5","","Aachen","[]","Aachen","true","false","2590.890000006766"
"","html-voicekey-response","96","538374","0.0-4.92-0.92","8lyqu6pcur07aut","{""user_agent"":""Mozilla/5.0 (Macintosh; Intel Mac OS X 10_14_4) AppleWebKit/537.36 (KHTML, like Gecko) Chrome/74.0.3729.131 Safari/537.36"",""on_chrome"":true,""on_mobile"":false,""language"":""en-US"",""screen_resolution"":[1440,900],""platform"":""MacIntel"",""timezone"":""Europe/Berlin""}","3","1439.3199999993435","","","1557915530765","12","","Dessau","[]","Dessau","true","false","2047.7700000046752"
"","html-voicekey-response","97","541574","0.0-4.93-0.93","8lyqu6pcur07aut","{""user_agent"":""Mozilla/5.0 (Macintosh; Intel Mac OS X 10_14_4) AppleWebKit/537.36 (KHTML, like Gecko) Chrome/74.0.3729.131 Safari/537.36"",""on_chrome"":true,""on_mobile"":false,""language"":""en-US"",""screen_resolution"":[1440,900],""platform"":""MacIntel"",""timezone"":""Europe/Berlin""}","3","1689.1550000089687","","","1557915533415","7","","Erfurt","[]","Erfurt","true","false","2598.1100000062725"
"","html-voicekey-response","98","548633","0.0-4.94-0.94","8lyqu6pcur07aut","{""user_agent"":""Mozilla/5.0 (Macintosh; Intel Mac OS X 10_14_4) AppleWebKit/537.36 (KHTML, like Gecko) Chrome/74.0.3729.131 Safari/537.36"",""on_chrome"":true,""on_mobile"":false,""language"":""en-US"",""screen_resolution"":[1440,900],""platform"":""MacIntel"",""timezone"":""Europe/Berlin""}","3","2005.1749999928056","","","1557915536615","11","","","[]","Alfeld","false","false","3056.044999990263"
"","html-voicekey-response","99","551733","0.0-4.95-0.95","8lyqu6pcur07aut","{""user_agent"":""Mozilla/5.0 (Macintosh; Intel Mac OS X 10_14_4) AppleWebKit/537.36 (KHTML, like Gecko) Chrome/74.0.3729.131 Safari/537.36"",""on_chrome"":true,""on_mobile"":false,""language"":""en-US"",""screen_resolution"":[1440,900],""platform"":""MacIntel"",""timezone"":""Europe/Berlin""}","3","1671.8800000033575","","","1557915543674","20","","Hamburg ","[]","Hamburg ","true","false","2497.4050000018906"
"","html-voicekey-response","100","559423","0.0-4.96-0.96","8lyqu6pcur07aut","{""user_agent"":""Mozilla/5.0 (Macintosh; Intel Mac OS X 10_14_4) AppleWebKit/537.36 (KHTML, like Gecko) Chrome/74.0.3729.131 Safari/537.36"",""on_chrome"":true,""on_mobile"":false,""language"":""en-US"",""screen_resolution"":[1440,900],""platform"":""MacIntel"",""timezone"":""Europe/Berlin""}","3","2037.575000003772","","","1557915546774","21","","","[]","Konstanz","false","false","3687.610000008135"
"","html-voicekey-response","101","563589","0.0-4.97-0.97","8lyqu6pcur07aut","{""user_agent"":""Mozilla/5.0 (Macintosh; Intel Mac OS X 10_14_4) AppleWebKit/537.36 (KHTML, like Gecko) Chrome/74.0.3729.131 Safari/537.36"",""on_chrome"":true,""on_mobile"":false,""language"":""en-US"",""screen_resolution"":[1440,900],""platform"":""MacIntel"",""timezone"":""Europe/Berlin""}","3","2405.34500000088","","","1557915554464","11","","Alfeld","[]","Alfeld","true","false","3563.669999988633"
"","html-voicekey-response","102","572796","0.0-4.98-0.98","8lyqu6pcur07aut","{""user_agent"":""Mozilla/5.0 (Macintosh; Intel Mac OS X 10_14_4) AppleWebKit/537.36 (KHTML, like Gecko) Chrome/74.0.3729.131 Safari/537.36"",""on_chrome"":true,""on_mobile"":false,""language"":""en-US"",""screen_resolution"":[1440,900],""platform"":""MacIntel"",""timezone"":""Europe/Berlin""}","3","4077.589999995171","","","1557915558631","18","","","[]","Forchheim","false","false","5202.325000005658"
"","html-voicekey-response","103","576003","0.0-4.99-0.99","8lyqu6pcur07aut","{""user_agent"":""Mozilla/5.0 (Macintosh; Intel Mac OS X 10_14_4) AppleWebKit/537.36 (KHTML, like Gecko) Chrome/74.0.3729.131 Safari/537.36"",""on_chrome"":true,""on_mobile"":false,""language"":""en-US"",""screen_resolution"":[1440,900],""platform"":""MacIntel"",""timezone"":""Europe/Berlin""}","3","1705.2950000014157","","","1557915567837","5","","Aachen","[]","Aachen","true","false","2604.47999999451"
"","html-voicekey-response","104","580486","0.0-4.100-0.100","8lyqu6pcur07aut","{""user_agent"":""Mozilla/5.0 (Macintosh; Intel Mac OS X 10_14_4) AppleWebKit/537.36 (KHTML, like Gecko) Chrome/74.0.3729.131 Safari/537.36"",""on_chrome"":true,""on_mobile"":false,""language"":""en-US"",""screen_resolution"":[1440,900],""platform"":""MacIntel"",""timezone"":""Europe/Berlin""}","3","3286.625000002305","","","1557915571045","1","","Magdeburg","[]","Magdeburg","true","false","3879.190000006929"
"","html-voicekey-response","105","589735","0.0-4.101-0.101","8lyqu6pcur07aut","{""user_agent"":""Mozilla/5.0 (Macintosh; Intel Mac OS X 10_14_4) AppleWebKit/537.36 (KHTML, like Gecko) Chrome/74.0.3729.131 Safari/537.36"",""on_chrome"":true,""on_mobile"":false,""language"":""en-US"",""screen_resolution"":[1440,900],""platform"":""MacIntel"",""timezone"":""Europe/Berlin""}","3","4455.045000004093","","","1557915575527","13","","","[]","Chemnitz","false","false","5246.130000014091"
"","html-voicekey-response","106","592747","0.0-4.102-0.102","8lyqu6pcur07aut","{""user_agent"":""Mozilla/5.0 (Macintosh; Intel Mac OS X 10_14_4) AppleWebKit/537.36 (KHTML, like Gecko) Chrome/74.0.3729.131 Safari/537.36"",""on_chrome"":true,""on_mobile"":false,""language"":""en-US"",""screen_resolution"":[1440,900],""platform"":""MacIntel"",""timezone"":""Europe/Berlin""}","3","1650.320000009588","","","1557915584777","11","","Alfeld","[]","Alfeld","true","false","2408.3600000012666"
"","html-voicekey-response","107","601321","0.0-4.103-0.103","8lyqu6pcur07aut","{""user_agent"":""Mozilla/5.0 (Macintosh; Intel Mac OS X 10_14_4) AppleWebKit/537.36 (KHTML, like Gecko) Chrome/74.0.3729.131 Safari/537.36"",""on_chrome"":true,""on_mobile"":false,""language"":""en-US"",""screen_resolution"":[1440,900],""platform"":""MacIntel"",""timezone"":""Europe/Berlin""}","3","3788.6899999956136","","","1557915587788","3","","","[]","Ingolstadt","false","false","4571.639999994659"
"","html-voicekey-response","108","608571","0.0-4.104-0.104","8lyqu6pcur07aut","{""user_agent"":""Mozilla/5.0 (Macintosh; Intel Mac OS X 10_14_4) AppleWebKit/537.36 (KHTML, like Gecko) Chrome/74.0.3729.131 Safari/537.36"",""on_chrome"":true,""on_mobile"":false,""language"":""en-US"",""screen_resolution"":[1440,900],""platform"":""MacIntel"",""timezone"":""Europe/Berlin""}","3","2204.275000005355","","","1557915596363","18","","","[]","Forchheim","false","false","3246.614999996382"
"","html-voicekey-response","109","618044","0.0-4.105-0.105","8lyqu6pcur07aut","{""user_agent"":""Mozilla/5.0 (Macintosh; Intel Mac OS X 10_14_4) AppleWebKit/537.36 (KHTML, like Gecko) Chrome/74.0.3729.131 Safari/537.36"",""on_chrome"":true,""on_mobile"":false,""language"":""en-US"",""screen_resolution"":[1440,900],""platform"":""MacIntel"",""timezone"":""Europe/Berlin""}","3","4702.825000009243","","","1557915603612","21","","","[]","Konstanz","false","false","5469.605000005686"
"","html-voicekey-response","110","624778","0.0-4.106-0.106","8lyqu6pcur07aut","{""user_agent"":""Mozilla/5.0 (Macintosh; Intel Mac OS X 10_14_4) AppleWebKit/537.36 (KHTML, like Gecko) Chrome/74.0.3729.131 Safari/537.36"",""on_chrome"":true,""on_mobile"":false,""language"":""en-US"",""screen_resolution"":[1440,900],""platform"":""MacIntel"",""timezone"":""Europe/Berlin""}","3","2021.530000007106","","","1557915613085","11","","","[]","Alfeld","false","false","2730.315000007977"
"","html-voicekey-response","111","629220","0.0-4.107-0.107","8lyqu6pcur07aut","{""user_agent"":""Mozilla/5.0 (Macintosh; Intel Mac OS X 10_14_4) AppleWebKit/537.36 (KHTML, like Gecko) Chrome/74.0.3729.131 Safari/537.36"",""on_chrome"":true,""on_mobile"":false,""language"":""en-US"",""screen_resolution"":[1440,900],""platform"":""MacIntel"",""timezone"":""Europe/Berlin""}","3","3329.2500000041678","","","1557915619821","12","","Dessau","[]","Dessau","true","false","3838.260000004084"
"","html-voicekey-response","112","631638","0.0-4.108-0.108","8lyqu6pcur07aut","{""user_agent"":""Mozilla/5.0 (Macintosh; Intel Mac OS X 10_14_4) AppleWebKit/537.36 (KHTML, like Gecko) Chrome/74.0.3729.131 Safari/537.36"",""on_chrome"":true,""on_mobile"":false,""language"":""en-US"",""screen_resolution"":[1440,900],""platform"":""MacIntel"",""timezone"":""Europe/Berlin""}","3","1255.7699999977835","","","1557915624261","11","","Alfeld","[]","Alfeld","true","false","1813.930000003893"
"","html-voicekey-response","113","634211","0.0-4.109-0.109","8lyqu6pcur07aut","{""user_agent"":""Mozilla/5.0 (Macintosh; Intel Mac OS X 10_14_4) AppleWebKit/537.36 (KHTML, like Gecko) Chrome/74.0.3729.131 Safari/537.36"",""on_chrome"":true,""on_mobile"":false,""language"":""en-US"",""screen_resolution"":[1440,900],""platform"":""MacIntel"",""timezone"":""Europe/Berlin""}","3","1310.7549999929965","","","1557915626679","4","","Würzburg","[]","Würzburg","true","false","1970.0799999991432"
"","html-voicekey-response","114","638977","0.0-4.110-0.110","8lyqu6pcur07aut","{""user_agent"":""Mozilla/5.0 (Macintosh; Intel Mac OS X 10_14_4) AppleWebKit/537.36 (KHTML, like Gecko) Chrome/74.0.3729.131 Safari/537.36"",""on_chrome"":true,""on_mobile"":false,""language"":""en-US"",""screen_resolution"":[1440,900],""platform"":""MacIntel"",""timezone"":""Europe/Berlin""}","3","2570.5950000063517","","","1557915629252","10","","Heidelberg","[]","Heidelberg","true","false","4163.180000003194"
"","html-voicekey-response","115","648211","0.0-4.111-0.111","8lyqu6pcur07aut","{""user_agent"":""Mozilla/5.0 (Macintosh; Intel Mac OS X 10_14_4) AppleWebKit/537.36 (KHTML, like Gecko) Chrome/74.0.3729.131 Safari/537.36"",""on_chrome"":true,""on_mobile"":false,""language"":""en-US"",""screen_resolution"":[1440,900],""platform"":""MacIntel"",""timezone"":""Europe/Berlin""}","3","4572.04999999688","","","1557915634018","18","","","[]","Forchheim","false","false","5230.074999999488"
"","html-voicekey-response","116","657184","0.0-4.112-0.112","8lyqu6pcur07aut","{""user_agent"":""Mozilla/5.0 (Macintosh; Intel Mac OS X 10_14_4) AppleWebKit/537.36 (KHTML, like Gecko) Chrome/74.0.3729.131 Safari/537.36"",""on_chrome"":true,""on_mobile"":false,""language"":""en-US"",""screen_resolution"":[1440,900],""platform"":""MacIntel"",""timezone"":""Europe/Berlin""}","3","4444.245000000437","","","1557915643253","3","","","[]","Ingolstadt","false","false","4969.249999994645"
"","html-voicekey-response","117","660813","0.0-4.113-0.113","8lyqu6pcur07aut","{""user_agent"":""Mozilla/5.0 (Macintosh; Intel Mac OS X 10_14_4) AppleWebKit/537.36 (KHTML, like Gecko) Chrome/74.0.3729.131 Safari/537.36"",""on_chrome"":true,""on_mobile"":false,""language"":""en-US"",""screen_resolution"":[1440,900],""platform"":""MacIntel"",""timezone"":""Europe/Berlin""}","3","1621.2599999942818","","","1557915652226","21","","Konstanz","[]","Konstanz","true","false","3024.74500000244"
"","html-voicekey-response","118","663579","0.0-4.114-0.114","8lyqu6pcur07aut","{""user_agent"":""Mozilla/5.0 (Macintosh; Intel Mac OS X 10_14_4) AppleWebKit/537.36 (KHTML, like Gecko) Chrome/74.0.3729.131 Safari/537.36"",""on_chrome"":true,""on_mobile"":false,""language"":""en-US"",""screen_resolution"":[1440,900],""platform"":""MacIntel"",""timezone"":""Europe/Berlin""}","3","1537.5349999902305","","","1557915655854","9","","München","[]","München","true","false","2162.1799999993527"
"","html-voicekey-response","119","673365","0.0-4.115-0.115","8lyqu6pcur07aut","{""user_agent"":""Mozilla/5.0 (Macintosh; Intel Mac OS X 10_14_4) AppleWebKit/537.36 (KHTML, like Gecko) Chrome/74.0.3729.131 Safari/537.36"",""on_chrome"":true,""on_mobile"":false,""language"":""en-US"",""screen_resolution"":[1440,900],""platform"":""MacIntel"",""timezone"":""Europe/Berlin""}","3","5138.814999992819","","","1557915658620","8","","","[]","Gotha","false","false","5780.610000001616"
"","html-voicekey-response","120","681202","0.0-4.116-0.116","8lyqu6pcur07aut","{""user_agent"":""Mozilla/5.0 (Macintosh; Intel Mac OS X 10_14_4) AppleWebKit/537.36 (KHTML, like Gecko) Chrome/74.0.3729.131 Safari/537.36"",""on_chrome"":true,""on_mobile"":false,""language"":""en-US"",""screen_resolution"":[1440,900],""platform"":""MacIntel"",""timezone"":""Europe/Berlin""}","3","Infinity","","","1557915668407","6","","Dresden","[]","Dresden","true","false","7232.194999989588"
"","html-voicekey-response","121","684645","0.0-4.117-0.117","8lyqu6pcur07aut","{""user_agent"":""Mozilla/5.0 (Macintosh; Intel Mac OS X 10_14_4) AppleWebKit/537.36 (KHTML, like Gecko) Chrome/74.0.3729.131 Safari/537.36"",""on_chrome"":true,""on_mobile"":false,""language"":""en-US"",""screen_resolution"":[1440,900],""platform"":""MacIntel"",""timezone"":""Europe/Berlin""}","3","2048.235000003688","","","1557915676243","11","","Alfeld","[]","Alfeld","true","false","2839.5650000020396"
"","html-voicekey-response","122","689128","0.0-4.118-0.118","8lyqu6pcur07aut","{""user_agent"":""Mozilla/5.0 (Macintosh; Intel Mac OS X 10_14_4) AppleWebKit/537.36 (KHTML, like Gecko) Chrome/74.0.3729.131 Safari/537.36"",""on_chrome"":true,""on_mobile"":false,""language"":""en-US"",""screen_resolution"":[1440,900],""platform"":""MacIntel"",""timezone"":""Europe/Berlin""}","3","3271.0549999990967","","","1557915679687","3","","Ingolstadt","[]","Ingolstadt","true","false","3879.784999997355"
"","html-voicekey-response","123","692128","0.0-4.119-0.119","8lyqu6pcur07aut","{""user_agent"":""Mozilla/5.0 (Macintosh; Intel Mac OS X 10_14_4) AppleWebKit/537.36 (KHTML, like Gecko) Chrome/74.0.3729.131 Safari/537.36"",""on_chrome"":true,""on_mobile"":false,""language"":""en-US"",""screen_resolution"":[1440,900],""platform"":""MacIntel"",""timezone"":""Europe/Berlin""}","3","1188.170000002929","","","1557915684170","13","","Chemnitz","[]","Chemnitz","true","false","2397.035000001779"
"","html-voicekey-response","124","701252","0.0-4.120-0.120","8lyqu6pcur07aut","{""user_agent"":""Mozilla/5.0 (Macintosh; Intel Mac OS X 10_14_4) AppleWebKit/537.36 (KHTML, like Gecko) Chrome/74.0.3729.131 Safari/537.36"",""on_chrome"":true,""on_mobile"":false,""language"":""en-US"",""screen_resolution"":[1440,900],""platform"":""MacIntel"",""timezone"":""Europe/Berlin""}","3","4428.369999988563","","","1557915687170","15","","","[]","Nürnberg","false","false","5120.019999987562"
"","html-voicekey-response","125","711748","0.0-4.121-0.121","8lyqu6pcur07aut","{""user_agent"":""Mozilla/5.0 (Macintosh; Intel Mac OS X 10_14_4) AppleWebKit/537.36 (KHTML, like Gecko) Chrome/74.0.3729.131 Safari/537.36"",""on_chrome"":true,""on_mobile"":false,""language"":""en-US"",""screen_resolution"":[1440,900],""platform"":""MacIntel"",""timezone"":""Europe/Berlin""}","3","5771.059999993513","","","1557915696293","18","","","[]","Forchheim","false","false","6492.699999987963"
"","html-voicekey-response","126","715147","0.0-4.122-0.122","8lyqu6pcur07aut","{""user_agent"":""Mozilla/5.0 (Macintosh; Intel Mac OS X 10_14_4) AppleWebKit/537.36 (KHTML, like Gecko) Chrome/74.0.3729.131 Safari/537.36"",""on_chrome"":true,""on_mobile"":false,""language"":""en-US"",""screen_resolution"":[1440,900],""platform"":""MacIntel"",""timezone"":""Europe/Berlin""}","3","2203.424999994086","","","1557915706790","12","","Dessau","[]","Dessau","true","false","2795.1949999987846"
"","html-voicekey-response","127","721666","0.0-4.123-0.123","8lyqu6pcur07aut","{""user_agent"":""Mozilla/5.0 (Macintosh; Intel Mac OS X 10_14_4) AppleWebKit/537.36 (KHTML, like Gecko) Chrome/74.0.3729.131 Safari/537.36"",""on_chrome"":true,""on_mobile"":false,""language"":""en-US"",""screen_resolution"":[1440,900],""platform"":""MacIntel"",""timezone"":""Europe/Berlin""}","3","3753.2500000032364","","","1557915710189","3","","Ingolstadt","[]","Ingolstadt","true","false","5912.330000006477"
"","html-voicekey-response","128","732969","0.0-4.124-0.124","8lyqu6pcur07aut","{""user_agent"":""Mozilla/5.0 (Macintosh; Intel Mac OS X 10_14_4) AppleWebKit/537.36 (KHTML, like Gecko) Chrome/74.0.3729.131 Safari/537.36"",""on_chrome"":true,""on_mobile"":false,""language"":""en-US"",""screen_resolution"":[1440,900],""platform"":""MacIntel"",""timezone"":""Europe/Berlin""}","3","6408.36999999904","","","1557915716708","5","","","[]","Aachen","false","false","7299.694999994244"
"","html-voicekey-response","129","740431","0.0-4.125-0.125","8lyqu6pcur07aut","{""user_agent"":""Mozilla/5.0 (Macintosh; Intel Mac OS X 10_14_4) AppleWebKit/537.36 (KHTML, like Gecko) Chrome/74.0.3729.131 Safari/537.36"",""on_chrome"":true,""on_mobile"":false,""language"":""en-US"",""screen_resolution"":[1440,900],""platform"":""MacIntel"",""timezone"":""Europe/Berlin""}","3","2721.025000000582","","","1557915728011","18","","","[]","Forchheim","false","false","3458.2850000006147"
"","html-voicekey-response","130","743130","0.0-4.126-0.126","8lyqu6pcur07aut","{""user_agent"":""Mozilla/5.0 (Macintosh; Intel Mac OS X 10_14_4) AppleWebKit/537.36 (KHTML, like Gecko) Chrome/74.0.3729.131 Safari/537.36"",""on_chrome"":true,""on_mobile"":false,""language"":""en-US"",""screen_resolution"":[1440,900],""platform"":""MacIntel"",""timezone"":""Europe/Berlin""}","3","1503.31999999783","","","1557915735473","21","","Konstanz","[]","Konstanz","true","false","2094.9999999866122"
"","html-voicekey-response","131","746203","0.0-4.127-0.127","8lyqu6pcur07aut","{""user_agent"":""Mozilla/5.0 (Macintosh; Intel Mac OS X 10_14_4) AppleWebKit/537.36 (KHTML, like Gecko) Chrome/74.0.3729.131 Safari/537.36"",""on_chrome"":true,""on_mobile"":false,""language"":""en-US"",""screen_resolution"":[1440,900],""platform"":""MacIntel"",""timezone"":""Europe/Berlin""}","3","1953.2600000037114","","","1557915738173","5","","Aachen","[]","Aachen","true","false","2468.7750000011874"
"","html-voicekey-response","132","752803","0.0-4.128-0.128","8lyqu6pcur07aut","{""user_agent"":""Mozilla/5.0 (Macintosh; Intel Mac OS X 10_14_4) AppleWebKit/537.36 (KHTML, like Gecko) Chrome/74.0.3729.131 Safari/537.36"",""on_chrome"":true,""on_mobile"":false,""language"":""en-US"",""screen_resolution"":[1440,900],""platform"":""MacIntel"",""timezone"":""Europe/Berlin""}","3","5336.044999998039","","","1557915741246","3","","Ingolstadt","[]","Ingolstadt","true","false","5995.884999996633"
"","html-voicekey-response","133","765172","0.0-4.129-0.129","8lyqu6pcur07aut","{""user_agent"":""Mozilla/5.0 (Macintosh; Intel Mac OS X 10_14_4) AppleWebKit/537.36 (KHTML, like Gecko) Chrome/74.0.3729.131 Safari/537.36"",""on_chrome"":true,""on_mobile"":false,""language"":""en-US"",""screen_resolution"":[1440,900],""platform"":""MacIntel"",""timezone"":""Europe/Berlin""}","3","7770.1250000044","","","1557915747845","18","","","[]","Forchheim","false","false","8362.810000005993"
"","html-voicekey-response","134","767599","0.0-4.130-0.130","8lyqu6pcur07aut","{""user_agent"":""Mozilla/5.0 (Macintosh; Intel Mac OS X 10_14_4) AppleWebKit/537.36 (KHTML, like Gecko) Chrome/74.0.3729.131 Safari/537.36"",""on_chrome"":true,""on_mobile"":false,""language"":""en-US"",""screen_resolution"":[1440,900],""platform"":""MacIntel"",""timezone"":""Europe/Berlin""}","3","1215.084999997844","","","1557915760214","1","","Magdeburg","[]","Magdeburg","true","false","1823.6850000103004"
"","html-voicekey-response","135","771382","0.0-4.131-0.131","8lyqu6pcur07aut","{""user_agent"":""Mozilla/5.0 (Macintosh; Intel Mac OS X 10_14_4) AppleWebKit/537.36 (KHTML, like Gecko) Chrome/74.0.3729.131 Safari/537.36"",""on_chrome"":true,""on_mobile"":false,""language"":""en-US"",""screen_resolution"":[1440,900],""platform"":""MacIntel"",""timezone"":""Europe/Berlin""}","3","2087.5599999943283","","","1557915762642","15","","Nürnberg","[]","Nürnberg","true","false","3178.859999999986"
"","html-voicekey-response","136","774057","0.0-4.132-0.132","8lyqu6pcur07aut","{""user_agent"":""Mozilla/5.0 (Macintosh; Intel Mac OS X 10_14_4) AppleWebKit/537.36 (KHTML, like Gecko) Chrome/74.0.3729.131 Safari/537.36"",""on_chrome"":true,""on_mobile"":false,""language"":""en-US"",""screen_resolution"":[1440,900],""platform"":""MacIntel"",""timezone"":""Europe/Berlin""}","3","1462.099999998673","","","1557915766424","16","","Schwangau","[]","Schwangau","true","false","2070.755000007921"
"","html-voicekey-response","137","778856","0.0-4.133-0.133","8lyqu6pcur07aut","{""user_agent"":""Mozilla/5.0 (Macintosh; Intel Mac OS X 10_14_4) AppleWebKit/537.36 (KHTML, like Gecko) Chrome/74.0.3729.131 Safari/537.36"",""on_chrome"":true,""on_mobile"":false,""language"":""en-US"",""screen_resolution"":[1440,900],""platform"":""MacIntel"",""timezone"":""Europe/Berlin""}","3","3752.9799999991433","","","1557915769099","14","","Potsdam","[]","Potsdam","true","false","4195.514999999432"
"","html-voicekey-response","138","789140","0.0-4.134-0.134","8lyqu6pcur07aut","{""user_agent"":""Mozilla/5.0 (Macintosh; Intel Mac OS X 10_14_4) AppleWebKit/537.36 (KHTML, like Gecko) Chrome/74.0.3729.131 Safari/537.36"",""on_chrome"":true,""on_mobile"":false,""language"":""en-US"",""screen_resolution"":[1440,900],""platform"":""MacIntel"",""timezone"":""Europe/Berlin""}","3","3620.309999992815","","","1557915773899","3","","","[]","Ingolstadt","false","false","6279.255000001285"
"","html-voicekey-response","139","793729","0.0-4.135-0.135","8lyqu6pcur07aut","{""user_agent"":""Mozilla/5.0 (Macintosh; Intel Mac OS X 10_14_4) AppleWebKit/537.36 (KHTML, like Gecko) Chrome/74.0.3729.131 Safari/537.36"",""on_chrome"":true,""on_mobile"":false,""language"":""en-US"",""screen_resolution"":[1440,900],""platform"":""MacIntel"",""timezone"":""Europe/Berlin""}","3","3343.1149999904214","","","1557915784184","18","","Forchheim","[]","Forchheim","true","false","3984.440000000177"
"","html-voicekey-response","140","797371","0.0-4.136-0.136","8lyqu6pcur07aut","{""user_agent"":""Mozilla/5.0 (Macintosh; Intel Mac OS X 10_14_4) AppleWebKit/537.36 (KHTML, like Gecko) Chrome/74.0.3729.131 Safari/537.36"",""on_chrome"":true,""on_mobile"":false,""language"":""en-US"",""screen_resolution"":[1440,900],""platform"":""MacIntel"",""timezone"":""Europe/Berlin""}","3","1479.1950000015554","","","1557915788772","3","","Ingolstadt","[]","Ingolstadt","true","false","3037.47999999905"
"","html-voicekey-response","141","805022","0.0-4.137-0.137","8lyqu6pcur07aut","{""user_agent"":""Mozilla/5.0 (Macintosh; Intel Mac OS X 10_14_4) AppleWebKit/537.36 (KHTML, like Gecko) Chrome/74.0.3729.131 Safari/537.36"",""on_chrome"":true,""on_mobile"":false,""language"":""en-US"",""screen_resolution"":[1440,900],""platform"":""MacIntel"",""timezone"":""Europe/Berlin""}","3","670.2599999933503","","","1557915792414","11","","","[]","Alfeld","false","false","3646.2699999974575"
"","html-voicekey-response","142","807899","0.0-4.138-0.138","8lyqu6pcur07aut","{""user_agent"":""Mozilla/5.0 (Macintosh; Intel Mac OS X 10_14_4) AppleWebKit/537.36 (KHTML, like Gecko) Chrome/74.0.3729.131 Safari/537.36"",""on_chrome"":true,""on_mobile"":false,""language"":""en-US"",""screen_resolution"":[1440,900],""platform"":""MacIntel"",""timezone"":""Europe/Berlin""}","3","1719.7800000083867","","","1557915800064","8","","Gotha","[]","Gotha","true","false","2271.8600000080187"
"","html-voicekey-response","143","814699","0.0-4.139-0.139","8lyqu6pcur07aut","{""user_agent"":""Mozilla/5.0 (Macintosh; Intel Mac OS X 10_14_4) AppleWebKit/537.36 (KHTML, like Gecko) Chrome/74.0.3729.131 Safari/537.36"",""on_chrome"":true,""on_mobile"":false,""language"":""en-US"",""screen_resolution"":[1440,900],""platform"":""MacIntel"",""timezone"":""Europe/Berlin""}","3","5586.594999995059","","","1557915802942","18","","Forchheim","[]","Forchheim","true","false","6195.684999998775"
"","html-voicekey-response","144","817366","0.0-4.140-0.140","8lyqu6pcur07aut","{""user_agent"":""Mozilla/5.0 (Macintosh; Intel Mac OS X 10_14_4) AppleWebKit/537.36 (KHTML, like Gecko) Chrome/74.0.3729.131 Safari/537.36"",""on_chrome"":true,""on_mobile"":false,""language"":""en-US"",""screen_resolution"":[1440,900],""platform"":""MacIntel"",""timezone"":""Europe/Berlin""}","3","1402.9800000078744","","","1557915809742","6","","Dresden","[]","Dresden","true","false","2061.0949999972945"
"","html-voicekey-response","145","821472","0.0-4.141-0.141","8lyqu6pcur07aut","{""user_agent"":""Mozilla/5.0 (Macintosh; Intel Mac OS X 10_14_4) AppleWebKit/537.36 (KHTML, like Gecko) Chrome/74.0.3729.131 Safari/537.36"",""on_chrome"":true,""on_mobile"":false,""language"":""en-US"",""screen_resolution"":[1440,900],""platform"":""MacIntel"",""timezone"":""Europe/Berlin""}","3","2042.4199999923353","","","1557915812409","3","","Ingolstadt","[]","Ingolstadt","true","false","3501.6749999922467"
"","html-voicekey-response","146","823888","0.0-4.142-0.142","8lyqu6pcur07aut","{""user_agent"":""Mozilla/5.0 (Macintosh; Intel Mac OS X 10_14_4) AppleWebKit/537.36 (KHTML, like Gecko) Chrome/74.0.3729.131 Safari/537.36"",""on_chrome"":true,""on_mobile"":false,""language"":""en-US"",""screen_resolution"":[1440,900],""platform"":""MacIntel"",""timezone"":""Europe/Berlin""}","3","1285.9599999881816","","","1557915816515","17","","Leipzig","[]","Leipzig","true","false","1811.264999996638"
"","html-voicekey-response","147","830555","0.0-4.143-0.143","8lyqu6pcur07aut","{""user_agent"":""Mozilla/5.0 (Macintosh; Intel Mac OS X 10_14_4) AppleWebKit/537.36 (KHTML, like Gecko) Chrome/74.0.3729.131 Safari/537.36"",""on_chrome"":true,""on_mobile"":false,""language"":""en-US"",""screen_resolution"":[1440,900],""platform"":""MacIntel"",""timezone"":""Europe/Berlin""}","3","1137.4400000002702","","","1557915818931","18","","","[]","Forchheim","false","false","2662.289999992936"
"","html-voicekey-response","148","834979","0.0-4.144-0.144","8lyqu6pcur07aut","{""user_agent"":""Mozilla/5.0 (Macintosh; Intel Mac OS X 10_14_4) AppleWebKit/537.36 (KHTML, like Gecko) Chrome/74.0.3729.131 Safari/537.36"",""on_chrome"":true,""on_mobile"":false,""language"":""en-US"",""screen_resolution"":[1440,900],""platform"":""MacIntel"",""timezone"":""Europe/Berlin""}","3","Infinity","","","1557915825598","21","","Konstanz","[]","Konstanz","true","false","3819.6199999947567"
"","html-voicekey-response","149","837628","0.0-4.145-0.145","8lyqu6pcur07aut","{""user_agent"":""Mozilla/5.0 (Macintosh; Intel Mac OS X 10_14_4) AppleWebKit/537.36 (KHTML, like Gecko) Chrome/74.0.3729.131 Safari/537.36"",""on_chrome"":true,""on_mobile"":false,""language"":""en-US"",""screen_resolution"":[1440,900],""platform"":""MacIntel"",""timezone"":""Europe/Berlin""}","3","1486.1949999993435","","","1557915830021","18","","Forchheim","[]","Forchheim","true","false","2045.3799999959301"
"","html-voicekey-response","150","848102","0.0-4.146-0.146","8lyqu6pcur07aut","{""user_agent"":""Mozilla/5.0 (Macintosh; Intel Mac OS X 10_14_4) AppleWebKit/537.36 (KHTML, like Gecko) Chrome/74.0.3729.131 Safari/537.36"",""on_chrome"":true,""on_mobile"":false,""language"":""en-US"",""screen_resolution"":[1440,900],""platform"":""MacIntel"",""timezone"":""Europe/Berlin""}","3","5527.980000007874","","","1557915832671","3","","","[]","Ingolstadt","false","false","6469.010000000708"
