"value","trial_type","trial_index","time_elapsed","internal_node_id","subject","browser_info","participant_number","rt","responses","view_history","presentation_start_time","id","text","response","keypresses","answer","correct","study","experimenter_rt"
"","call-function","0","4","0.0-0.0","vhmftks08x343ge","{""user_agent"":""Mozilla/5.0 (Macintosh; Intel Mac OS X 10_14_4) AppleWebKit/537.36 (KHTML, like Gecko) Chrome/74.0.3729.131 Safari/537.36"",""on_chrome"":true,""on_mobile"":false,""language"":""en-US"",""screen_resolution"":[1440,900],""platform"":""MacIntel"",""timezone"":""Europe/Berlin""}","4","","","","","","","","","","","",""
"","survey-text","1","6577","0.0-1.0","vhmftks08x343ge","{""user_agent"":""Mozilla/5.0 (Macintosh; Intel Mac OS X 10_14_4) AppleWebKit/537.36 (KHTML, like Gecko) Chrome/74.0.3729.131 Safari/537.36"",""on_chrome"":true,""on_mobile"":false,""language"":""en-US"",""screen_resolution"":[1440,900],""platform"":""MacIntel"",""timezone"":""Europe/Berlin""}","4","6572","{""Q0"":""4""}","","","","","","","","","",""
"","instructions","2","76178","0.0-2.0","vhmftks08x343ge","{""user_agent"":""Mozilla/5.0 (Macintosh; Intel Mac OS X 10_14_4) AppleWebKit/537.36 (KHTML, like Gecko) Chrome/74.0.3729.131 Safari/537.36"",""on_chrome"":true,""on_mobile"":false,""language"":""en-US"",""screen_resolution"":[1440,900],""platform"":""MacIntel"",""timezone"":""Europe/Berlin""}","4","69599","","[{""page_index"":0,""viewing_time"":69599}]","","","","","","","","",""
"","call-function","3","76178","0.0-3.0","vhmftks08x343ge","{""user_agent"":""Mozilla/5.0 (Macintosh; Intel Mac OS X 10_14_4) AppleWebKit/537.36 (KHTML, like Gecko) Chrome/74.0.3729.131 Safari/537.36"",""on_chrome"":true,""on_mobile"":false,""language"":""en-US"",""screen_resolution"":[1440,900],""platform"":""MacIntel"",""timezone"":""Europe/Berlin""}","4","","","","","","","","","","","",""
"","html-voicekey-response","4","79221","0.0-4.0-0.0","vhmftks08x343ge","{""user_agent"":""Mozilla/5.0 (Macintosh; Intel Mac OS X 10_14_4) AppleWebKit/537.36 (KHTML, like Gecko) Chrome/74.0.3729.131 Safari/537.36"",""on_chrome"":true,""on_mobile"":false,""language"":""en-US"",""screen_resolution"":[1440,900],""platform"":""MacIntel"",""timezone"":""Europe/Berlin""}","4","1147.0849999985426","","","1557920750769","1","","Magdeburg","[]","Magdeburg","true","true","2440.9449999948265"
"","html-voicekey-response","5","84320","0.0-4.1-0.1","vhmftks08x343ge","{""user_agent"":""Mozilla/5.0 (Macintosh; Intel Mac OS X 10_14_4) AppleWebKit/537.36 (KHTML, like Gecko) Chrome/74.0.3729.131 Safari/537.36"",""on_chrome"":true,""on_mobile"":false,""language"":""en-US"",""screen_resolution"":[1440,900],""platform"":""MacIntel"",""timezone"":""Europe/Berlin""}","4","2670.345000000298","","","1557920753813","1","","Magdeburg","[]","Magdeburg","true","false","4495.855000001029"
"","html-voicekey-response","6","87237","0.0-4.2-0.2","vhmftks08x343ge","{""user_agent"":""Mozilla/5.0 (Macintosh; Intel Mac OS X 10_14_4) AppleWebKit/537.36 (KHTML, like Gecko) Chrome/74.0.3729.131 Safari/537.36"",""on_chrome"":true,""on_mobile"":false,""language"":""en-US"",""screen_resolution"":[1440,900],""platform"":""MacIntel"",""timezone"":""Europe/Berlin""}","4","1455.869999999623","","","1557920758911","2","","Berlin","[]","Berlin","true","true","2315.440000005765"
"","html-voicekey-response","7","90344","0.0-4.3-0.3","vhmftks08x343ge","{""user_agent"":""Mozilla/5.0 (Macintosh; Intel Mac OS X 10_14_4) AppleWebKit/537.36 (KHTML, like Gecko) Chrome/74.0.3729.131 Safari/537.36"",""on_chrome"":true,""on_mobile"":false,""language"":""en-US"",""screen_resolution"":[1440,900],""platform"":""MacIntel"",""timezone"":""Europe/Berlin""}","4","1746.9800000051969","","","1557920761827","2","","Berlin","[]","Berlin","true","false","2505.9150000015507"
"","html-voicekey-response","8","94143","0.0-4.4-0.4","vhmftks08x343ge","{""user_agent"":""Mozilla/5.0 (Macintosh; Intel Mac OS X 10_14_4) AppleWebKit/537.36 (KHTML, like Gecko) Chrome/74.0.3729.131 Safari/537.36"",""on_chrome"":true,""on_mobile"":false,""language"":""en-US"",""screen_resolution"":[1440,900],""platform"":""MacIntel"",""timezone"":""Europe/Berlin""}","4","1723.065000007255","","","1557920764935","3","","Ingolstadt","[]","Ingolstadt","true","true","3197.3700000089593"
"","html-voicekey-response","9","97776","0.0-4.5-0.5","vhmftks08x343ge","{""user_agent"":""Mozilla/5.0 (Macintosh; Intel Mac OS X 10_14_4) AppleWebKit/537.36 (KHTML, like Gecko) Chrome/74.0.3729.131 Safari/537.36"",""on_chrome"":true,""on_mobile"":false,""language"":""en-US"",""screen_resolution"":[1440,900],""platform"":""MacIntel"",""timezone"":""Europe/Berlin""}","4","1989.5800000029617","","","1557920768733","4","","Würzburg","[]","Würzburg","true","true","3032.265000001644"
"","html-voicekey-response","10","104317","0.0-4.6-0.6","vhmftks08x343ge","{""user_agent"":""Mozilla/5.0 (Macintosh; Intel Mac OS X 10_14_4) AppleWebKit/537.36 (KHTML, like Gecko) Chrome/74.0.3729.131 Safari/537.36"",""on_chrome"":true,""on_mobile"":false,""language"":""en-US"",""screen_resolution"":[1440,900],""platform"":""MacIntel"",""timezone"":""Europe/Berlin""}","4","1312.224999995879","","","1557920772367","3","","","[]","Ingolstadt","false","false","2538.5999999998603"
"","html-voicekey-response","11","110833","0.0-4.7-0.7","vhmftks08x343ge","{""user_agent"":""Mozilla/5.0 (Macintosh; Intel Mac OS X 10_14_4) AppleWebKit/537.36 (KHTML, like Gecko) Chrome/74.0.3729.131 Safari/537.36"",""on_chrome"":true,""on_mobile"":false,""language"":""en-US"",""screen_resolution"":[1440,900],""platform"":""MacIntel"",""timezone"":""Europe/Berlin""}","4","Infinity","","","1557920778907","4","","Würzburg","[]","Würzburg","true","false","5914.449999996577"
"","html-voicekey-response","12","114361","0.0-4.8-0.8","vhmftks08x343ge","{""user_agent"":""Mozilla/5.0 (Macintosh; Intel Mac OS X 10_14_4) AppleWebKit/537.36 (KHTML, like Gecko) Chrome/74.0.3729.131 Safari/537.36"",""on_chrome"":true,""on_mobile"":false,""language"":""en-US"",""screen_resolution"":[1440,900],""platform"":""MacIntel"",""timezone"":""Europe/Berlin""}","4","1767.500000010687","","","1557920785423","5","","Aachen","[]","Aachen","true","true","2926.7200000031153"
"","html-voicekey-response","13","117477","0.0-4.9-0.9","vhmftks08x343ge","{""user_agent"":""Mozilla/5.0 (Macintosh; Intel Mac OS X 10_14_4) AppleWebKit/537.36 (KHTML, like Gecko) Chrome/74.0.3729.131 Safari/537.36"",""on_chrome"":true,""on_mobile"":false,""language"":""en-US"",""screen_resolution"":[1440,900],""platform"":""MacIntel"",""timezone"":""Europe/Berlin""}","4","1138.7300000004238","","","1557920788952","6","","Dresden","[]","Dresden","true","true","2513.7200000026496"
"","html-voicekey-response","14","126877","0.0-4.10-0.10","vhmftks08x343ge","{""user_agent"":""Mozilla/5.0 (Macintosh; Intel Mac OS X 10_14_4) AppleWebKit/537.36 (KHTML, like Gecko) Chrome/74.0.3729.131 Safari/537.36"",""on_chrome"":true,""on_mobile"":false,""language"":""en-US"",""screen_resolution"":[1440,900],""platform"":""MacIntel"",""timezone"":""Europe/Berlin""}","4","4373.334999990975","","","1557920792067","5","","","[]","Aachen","false","false","5397.509999995236"
"","html-voicekey-response","15","134699","0.0-4.11-0.11","vhmftks08x343ge","{""user_agent"":""Mozilla/5.0 (Macintosh; Intel Mac OS X 10_14_4) AppleWebKit/537.36 (KHTML, like Gecko) Chrome/74.0.3729.131 Safari/537.36"",""on_chrome"":true,""on_mobile"":false,""language"":""en-US"",""screen_resolution"":[1440,900],""platform"":""MacIntel"",""timezone"":""Europe/Berlin""}","4","2095.0549999923446","","","1557920801468","6","","","[]","Dresden","false","false","3821.089999997639"
"","html-voicekey-response","16","138960","0.0-4.12-0.12","vhmftks08x343ge","{""user_agent"":""Mozilla/5.0 (Macintosh; Intel Mac OS X 10_14_4) AppleWebKit/537.36 (KHTML, like Gecko) Chrome/74.0.3729.131 Safari/537.36"",""on_chrome"":true,""on_mobile"":false,""language"":""en-US"",""screen_resolution"":[1440,900],""platform"":""MacIntel"",""timezone"":""Europe/Berlin""}","4","2705.964999995404","","","1557920809290","1","","Magdeburg","[]","Magdeburg","true","false","3659.4349999941187"
"","html-voicekey-response","17","142043","0.0-4.13-0.13","vhmftks08x343ge","{""user_agent"":""Mozilla/5.0 (Macintosh; Intel Mac OS X 10_14_4) AppleWebKit/537.36 (KHTML, like Gecko) Chrome/74.0.3729.131 Safari/537.36"",""on_chrome"":true,""on_mobile"":false,""language"":""en-US"",""screen_resolution"":[1440,900],""platform"":""MacIntel"",""timezone"":""Europe/Berlin""}","4","1355.695000000042","","","1557920813551","2","","Berlin","[]","Berlin","true","false","2481.375000003027"
"","html-voicekey-response","18","145610","0.0-4.14-0.14","vhmftks08x343ge","{""user_agent"":""Mozilla/5.0 (Macintosh; Intel Mac OS X 10_14_4) AppleWebKit/537.36 (KHTML, like Gecko) Chrome/74.0.3729.131 Safari/537.36"",""on_chrome"":true,""on_mobile"":false,""language"":""en-US"",""screen_resolution"":[1440,900],""platform"":""MacIntel"",""timezone"":""Europe/Berlin""}","4","1456.9050000080374","","","1557920816634","7","","Erfurt","[]","Erfurt","true","true","2964.9850000132574"
"","html-voicekey-response","19","152450","0.0-4.15-0.15","vhmftks08x343ge","{""user_agent"":""Mozilla/5.0 (Macintosh; Intel Mac OS X 10_14_4) AppleWebKit/537.36 (KHTML, like Gecko) Chrome/74.0.3729.131 Safari/537.36"",""on_chrome"":true,""on_mobile"":false,""language"":""en-US"",""screen_resolution"":[1440,900],""platform"":""MacIntel"",""timezone"":""Europe/Berlin""}","4","1729.3849999931176","","","1557920820201","3","","","[]","Ingolstadt","false","false","2838.0599999945844"
"","html-voicekey-response","20","166277","0.0-4.16-0.16","vhmftks08x343ge","{""user_agent"":""Mozilla/5.0 (Macintosh; Intel Mac OS X 10_14_4) AppleWebKit/537.36 (KHTML, like Gecko) Chrome/74.0.3729.131 Safari/537.36"",""on_chrome"":true,""on_mobile"":false,""language"":""en-US"",""screen_resolution"":[1440,900],""platform"":""MacIntel"",""timezone"":""Europe/Berlin""}","4","9154.369999998225","","","1557920827041","7","","","[]","Erfurt","false","false","9825.199999992037"
"","html-voicekey-response","21","173210","0.0-4.17-0.17","vhmftks08x343ge","{""user_agent"":""Mozilla/5.0 (Macintosh; Intel Mac OS X 10_14_4) AppleWebKit/537.36 (KHTML, like Gecko) Chrome/74.0.3729.131 Safari/537.36"",""on_chrome"":true,""on_mobile"":false,""language"":""en-US"",""screen_resolution"":[1440,900],""platform"":""MacIntel"",""timezone"":""Europe/Berlin""}","4","1888.1999999956229","","","1557920840868","4","","","[]","Würzburg","false","false","2931.1799999995856"
"","html-voicekey-response","22","184055","0.0-4.18-0.18","vhmftks08x343ge","{""user_agent"":""Mozilla/5.0 (Macintosh; Intel Mac OS X 10_14_4) AppleWebKit/537.36 (KHTML, like Gecko) Chrome/74.0.3729.131 Safari/537.36"",""on_chrome"":true,""on_mobile"":false,""language"":""en-US"",""screen_resolution"":[1440,900],""platform"":""MacIntel"",""timezone"":""Europe/Berlin""}","4","6005.159999995003","","","1557920847802","5","","","[]","Aachen","false","false","6842.009999993024"
"","html-voicekey-response","23","194361","0.0-4.19-0.19","vhmftks08x343ge","{""user_agent"":""Mozilla/5.0 (Macintosh; Intel Mac OS X 10_14_4) AppleWebKit/537.36 (KHTML, like Gecko) Chrome/74.0.3729.131 Safari/537.36"",""on_chrome"":true,""on_mobile"":false,""language"":""en-US"",""screen_resolution"":[1440,900],""platform"":""MacIntel"",""timezone"":""Europe/Berlin""}","4","138.43000000072644","","","1557920858646","6","","","[]","Dresden","false","false","6305.079999990994"
"","html-voicekey-response","24","199884","0.0-4.20-0.20","vhmftks08x343ge","{""user_agent"":""Mozilla/5.0 (Macintosh; Intel Mac OS X 10_14_4) AppleWebKit/537.36 (KHTML, like Gecko) Chrome/74.0.3729.131 Safari/537.36"",""on_chrome"":true,""on_mobile"":false,""language"":""en-US"",""screen_resolution"":[1440,900],""platform"":""MacIntel"",""timezone"":""Europe/Berlin""}","4","4189.080000005406","","","1557920868952","3","","Ingolstadt","[]","Ingolstadt","true","false","4921.620000008261"
"","html-voicekey-response","25","208184","0.0-4.21-0.21","vhmftks08x343ge","{""user_agent"":""Mozilla/5.0 (Macintosh; Intel Mac OS X 10_14_4) AppleWebKit/537.36 (KHTML, like Gecko) Chrome/74.0.3729.131 Safari/537.36"",""on_chrome"":true,""on_mobile"":false,""language"":""en-US"",""screen_resolution"":[1440,900],""platform"":""MacIntel"",""timezone"":""Europe/Berlin""}","4","100","","","1557920874475","8","","Gotha","[]","Gotha","true","true","7697.1599999960745"
"","html-voicekey-response","26","211908","0.0-4.22-0.22","vhmftks08x343ge","{""user_agent"":""Mozilla/5.0 (Macintosh; Intel Mac OS X 10_14_4) AppleWebKit/537.36 (KHTML, like Gecko) Chrome/74.0.3729.131 Safari/537.36"",""on_chrome"":true,""on_mobile"":false,""language"":""en-US"",""screen_resolution"":[1440,900],""platform"":""MacIntel"",""timezone"":""Europe/Berlin""}","4","1830.9099999986124","","","1557920882775","7","","Erfurt","[]","Erfurt","true","false","3122.365000002901"
"","html-voicekey-response","27","216558","0.0-4.23-0.23","vhmftks08x343ge","{""user_agent"":""Mozilla/5.0 (Macintosh; Intel Mac OS X 10_14_4) AppleWebKit/537.36 (KHTML, like Gecko) Chrome/74.0.3729.131 Safari/537.36"",""on_chrome"":true,""on_mobile"":false,""language"":""en-US"",""screen_resolution"":[1440,900],""platform"":""MacIntel"",""timezone"":""Europe/Berlin""}","4","3187.820000000857","","","1557920886501","8","","Gotha","[]","Gotha","true","false","4046.749999994063"
"","html-voicekey-response","28","224558","0.0-4.24-0.24","vhmftks08x343ge","{""user_agent"":""Mozilla/5.0 (Macintosh; Intel Mac OS X 10_14_4) AppleWebKit/537.36 (KHTML, like Gecko) Chrome/74.0.3729.131 Safari/537.36"",""on_chrome"":true,""on_mobile"":false,""language"":""en-US"",""screen_resolution"":[1440,900],""platform"":""MacIntel"",""timezone"":""Europe/Berlin""}","4","2872.1149999999675","","","1557920891150","4","","","[]","Würzburg","false","false","3996.32500000007"
"","html-voicekey-response","29","229402","0.0-4.25-0.25","vhmftks08x343ge","{""user_agent"":""Mozilla/5.0 (Macintosh; Intel Mac OS X 10_14_4) AppleWebKit/537.36 (KHTML, like Gecko) Chrome/74.0.3729.131 Safari/537.36"",""on_chrome"":true,""on_mobile"":false,""language"":""en-US"",""screen_resolution"":[1440,900],""platform"":""MacIntel"",""timezone"":""Europe/Berlin""}","4","3549.6450000008103","","","1557920899149","5","","Aachen","[]","Aachen","true","false","4242.0750000019325"
"","html-voicekey-response","30","232287","0.0-4.26-0.26","vhmftks08x343ge","{""user_agent"":""Mozilla/5.0 (Macintosh; Intel Mac OS X 10_14_4) AppleWebKit/537.36 (KHTML, like Gecko) Chrome/74.0.3729.131 Safari/537.36"",""on_chrome"":true,""on_mobile"":false,""language"":""en-US"",""screen_resolution"":[1440,900],""platform"":""MacIntel"",""timezone"":""Europe/Berlin""}","4","1472.9499999901514","","","1557920903993","1","","Magdeburg","[]","Magdeburg","true","false","2281.1949999886565"
"","html-voicekey-response","31","239910","0.0-4.27-0.27","vhmftks08x343ge","{""user_agent"":""Mozilla/5.0 (Macintosh; Intel Mac OS X 10_14_4) AppleWebKit/537.36 (KHTML, like Gecko) Chrome/74.0.3729.131 Safari/537.36"",""on_chrome"":true,""on_mobile"":false,""language"":""en-US"",""screen_resolution"":[1440,900],""platform"":""MacIntel"",""timezone"":""Europe/Berlin""}","4","2826.8000000042143","","","1557920906880","3","","","[]","Ingolstadt","false","false","3619.5450000086566"
"","html-voicekey-response","32","243592","0.0-4.28-0.28","vhmftks08x343ge","{""user_agent"":""Mozilla/5.0 (Macintosh; Intel Mac OS X 10_14_4) AppleWebKit/537.36 (KHTML, like Gecko) Chrome/74.0.3729.131 Safari/537.36"",""on_chrome"":true,""on_mobile"":false,""language"":""en-US"",""screen_resolution"":[1440,900],""platform"":""MacIntel"",""timezone"":""Europe/Berlin""}","4","255.78500001013745","","","1557920914501","6","","Dresden","[]","Dresden","true","false","3079.924999998184"
"","html-voicekey-response","33","255084","0.0-4.29-0.29","vhmftks08x343ge","{""user_agent"":""Mozilla/5.0 (Macintosh; Intel Mac OS X 10_14_4) AppleWebKit/537.36 (KHTML, like Gecko) Chrome/74.0.3729.131 Safari/537.36"",""on_chrome"":true,""on_mobile"":false,""language"":""en-US"",""screen_resolution"":[1440,900],""platform"":""MacIntel"",""timezone"":""Europe/Berlin""}","4","6297.775000008032","","","1557920918183","4","","","[]","Würzburg","false","false","7489.895000006072"
"","html-voicekey-response","34","269676","0.0-4.30-0.30","vhmftks08x343ge","{""user_agent"":""Mozilla/5.0 (Macintosh; Intel Mac OS X 10_14_4) AppleWebKit/537.36 (KHTML, like Gecko) Chrome/74.0.3729.131 Safari/537.36"",""on_chrome"":true,""on_mobile"":false,""language"":""en-US"",""screen_resolution"":[1440,900],""platform"":""MacIntel"",""timezone"":""Europe/Berlin""}","4","9488.50000000114","","","1557920929675","3","","","[]","Ingolstadt","false","false","10590.790000002016"
"","html-voicekey-response","35","275701","0.0-4.31-0.31","vhmftks08x343ge","{""user_agent"":""Mozilla/5.0 (Macintosh; Intel Mac OS X 10_14_4) AppleWebKit/537.36 (KHTML, like Gecko) Chrome/74.0.3729.131 Safari/537.36"",""on_chrome"":true,""on_mobile"":false,""language"":""en-US"",""screen_resolution"":[1440,900],""platform"":""MacIntel"",""timezone"":""Europe/Berlin""}","4","4813.640000001969","","","1557920944268","5","","Aachen","[]","Aachen","true","false","5421.839999995427"
"","html-voicekey-response","36","278876","0.0-4.32-0.32","vhmftks08x343ge","{""user_agent"":""Mozilla/5.0 (Macintosh; Intel Mac OS X 10_14_4) AppleWebKit/537.36 (KHTML, like Gecko) Chrome/74.0.3729.131 Safari/537.36"",""on_chrome"":true,""on_mobile"":false,""language"":""en-US"",""screen_resolution"":[1440,900],""platform"":""MacIntel"",""timezone"":""Europe/Berlin""}","4","1954.3550000033342","","","1557920950292","4","","Würzburg","[]","Würzburg","true","false","2572.599999999511"
"","html-voicekey-response","37","281657","0.0-4.33-0.33","vhmftks08x343ge","{""user_agent"":""Mozilla/5.0 (Macintosh; Intel Mac OS X 10_14_4) AppleWebKit/537.36 (KHTML, like Gecko) Chrome/74.0.3729.131 Safari/537.36"",""on_chrome"":true,""on_mobile"":false,""language"":""en-US"",""screen_resolution"":[1440,900],""platform"":""MacIntel"",""timezone"":""Europe/Berlin""}","4","1454.7849999888335","","","1557920953467","8","","Gotha","[]","Gotha","true","false","2179.904999997234"
"","html-voicekey-response","38","292676","0.0-4.34-0.34","vhmftks08x343ge","{""user_agent"":""Mozilla/5.0 (Macintosh; Intel Mac OS X 10_14_4) AppleWebKit/537.36 (KHTML, like Gecko) Chrome/74.0.3729.131 Safari/537.36"",""on_chrome"":true,""on_mobile"":false,""language"":""en-US"",""screen_resolution"":[1440,900],""platform"":""MacIntel"",""timezone"":""Europe/Berlin""}","4","6305.624999987986","","","1557920956249","3","","","[]","Ingolstadt","false","false","7014.7799999977"
"","html-voicekey-response","39","297199","0.0-4.35-0.35","vhmftks08x343ge","{""user_agent"":""Mozilla/5.0 (Macintosh; Intel Mac OS X 10_14_4) AppleWebKit/537.36 (KHTML, like Gecko) Chrome/74.0.3729.131 Safari/537.36"",""on_chrome"":true,""on_mobile"":false,""language"":""en-US"",""screen_resolution"":[1440,900],""platform"":""MacIntel"",""timezone"":""Europe/Berlin""}","4","3195.560000001779","","","1557920967267","5","","Aachen","[]","Aachen","true","false","3921.470000001136"
"","html-voicekey-response","40","299983","0.0-4.36-0.36","vhmftks08x343ge","{""user_agent"":""Mozilla/5.0 (Macintosh; Intel Mac OS X 10_14_4) AppleWebKit/537.36 (KHTML, like Gecko) Chrome/74.0.3729.131 Safari/537.36"",""on_chrome"":true,""on_mobile"":false,""language"":""en-US"",""screen_resolution"":[1440,900],""platform"":""MacIntel"",""timezone"":""Europe/Berlin""}","4","1338.5050000013784","","","1557920971790","9","","München","[]","München","true","true","2180.754999993951"
"","html-voicekey-response","41","302877","0.0-4.37-0.37","vhmftks08x343ge","{""user_agent"":""Mozilla/5.0 (Macintosh; Intel Mac OS X 10_14_4) AppleWebKit/537.36 (KHTML, like Gecko) Chrome/74.0.3729.131 Safari/537.36"",""on_chrome"":true,""on_mobile"":false,""language"":""en-US"",""screen_resolution"":[1440,900],""platform"":""MacIntel"",""timezone"":""Europe/Berlin""}","4","1181.8799999981188","","","1557920974575","10","","Heidelberg","[]","Heidelberg","true","true","2291.5700000012293"
"","html-voicekey-response","42","311359","0.0-4.38-0.38","vhmftks08x343ge","{""user_agent"":""Mozilla/5.0 (Macintosh; Intel Mac OS X 10_14_4) AppleWebKit/537.36 (KHTML, like Gecko) Chrome/74.0.3729.131 Safari/537.36"",""on_chrome"":true,""on_mobile"":false,""language"":""en-US"",""screen_resolution"":[1440,900],""platform"":""MacIntel"",""timezone"":""Europe/Berlin""}","4","3538.809999992582","","","1557920977468","9","","","[]","München","false","false","4479.954999987967"
"","html-voicekey-response","43","315751","0.0-4.39-0.39","vhmftks08x343ge","{""user_agent"":""Mozilla/5.0 (Macintosh; Intel Mac OS X 10_14_4) AppleWebKit/537.36 (KHTML, like Gecko) Chrome/74.0.3729.131 Safari/537.36"",""on_chrome"":true,""on_mobile"":false,""language"":""en-US"",""screen_resolution"":[1440,900],""platform"":""MacIntel"",""timezone"":""Europe/Berlin""}","4","Infinity","","","1557920985951","10","","Heidelberg","[]","Heidelberg","true","false","3789.009999993141"
"","html-voicekey-response","44","326533","0.0-4.40-0.40","vhmftks08x343ge","{""user_agent"":""Mozilla/5.0 (Macintosh; Intel Mac OS X 10_14_4) AppleWebKit/537.36 (KHTML, like Gecko) Chrome/74.0.3729.131 Safari/537.36"",""on_chrome"":true,""on_mobile"":false,""language"":""en-US"",""screen_resolution"":[1440,900],""platform"":""MacIntel"",""timezone"":""Europe/Berlin""}","4","4537.325000006449","","","1557920990343","4","","","[]","Würzburg","false","false","6779.194999995525"
"","html-voicekey-response","45","335525","0.0-4.41-0.41","vhmftks08x343ge","{""user_agent"":""Mozilla/5.0 (Macintosh; Intel Mac OS X 10_14_4) AppleWebKit/537.36 (KHTML, like Gecko) Chrome/74.0.3729.131 Safari/537.36"",""on_chrome"":true,""on_mobile"":false,""language"":""en-US"",""screen_resolution"":[1440,900],""platform"":""MacIntel"",""timezone"":""Europe/Berlin""}","4","7560.1850000037575","","","1557921001127","3","","Ingolstadt","[]","Ingolstadt","true","false","8385.6550000055"
"","html-voicekey-response","46","339069","0.0-4.42-0.42","vhmftks08x343ge","{""user_agent"":""Mozilla/5.0 (Macintosh; Intel Mac OS X 10_14_4) AppleWebKit/537.36 (KHTML, like Gecko) Chrome/74.0.3729.131 Safari/537.36"",""on_chrome"":true,""on_mobile"":false,""language"":""en-US"",""screen_resolution"":[1440,900],""platform"":""MacIntel"",""timezone"":""Europe/Berlin""}","4","2282.7849999974483","","","1557921010117","6","","Dresden","[]","Dresden","true","false","2941.01499998942"
"","html-voicekey-response","47","346751","0.0-4.43-0.43","vhmftks08x343ge","{""user_agent"":""Mozilla/5.0 (Macintosh; Intel Mac OS X 10_14_4) AppleWebKit/537.36 (KHTML, like Gecko) Chrome/74.0.3729.131 Safari/537.36"",""on_chrome"":true,""on_mobile"":false,""language"":""en-US"",""screen_resolution"":[1440,900],""platform"":""MacIntel"",""timezone"":""Europe/Berlin""}","4","4088.5050000013784","","","1557921013660","5","","Aachen","[]","Aachen","true","false","7080.57999999437"
"","html-voicekey-response","48","353359","0.0-4.44-0.44","vhmftks08x343ge","{""user_agent"":""Mozilla/5.0 (Macintosh; Intel Mac OS X 10_14_4) AppleWebKit/537.36 (KHTML, like Gecko) Chrome/74.0.3729.131 Safari/537.36"",""on_chrome"":true,""on_mobile"":false,""language"":""en-US"",""screen_resolution"":[1440,900],""platform"":""MacIntel"",""timezone"":""Europe/Berlin""}","4","1780.1600000037347","","","1557921021342","3","","","[]","Ingolstadt","false","false","2606.115000002319"
"","html-voicekey-response","49","357208","0.0-4.45-0.45","vhmftks08x343ge","{""user_agent"":""Mozilla/5.0 (Macintosh; Intel Mac OS X 10_14_4) AppleWebKit/537.36 (KHTML, like Gecko) Chrome/74.0.3729.131 Safari/537.36"",""on_chrome"":true,""on_mobile"":false,""language"":""en-US"",""screen_resolution"":[1440,900],""platform"":""MacIntel"",""timezone"":""Europe/Berlin""}","4","Infinity","","","1557921027950","9","","München","[]","München","true","false","3246.979999996256"
"","html-voicekey-response","50","373765","0.0-4.46-0.46","vhmftks08x343ge","{""user_agent"":""Mozilla/5.0 (Macintosh; Intel Mac OS X 10_14_4) AppleWebKit/537.36 (KHTML, like Gecko) Chrome/74.0.3729.131 Safari/537.36"",""on_chrome"":true,""on_mobile"":false,""language"":""en-US"",""screen_resolution"":[1440,900],""platform"":""MacIntel"",""timezone"":""Europe/Berlin""}","4","6897.265000001271","","","1557921031799","3","","","[]","Ingolstadt","false","false","12555.074999996577"
"","html-voicekey-response","51","387161","0.0-4.47-0.47","vhmftks08x343ge","{""user_agent"":""Mozilla/5.0 (Macintosh; Intel Mac OS X 10_14_4) AppleWebKit/537.36 (KHTML, like Gecko) Chrome/74.0.3729.131 Safari/537.36"",""on_chrome"":true,""on_mobile"":false,""language"":""en-US"",""screen_resolution"":[1440,900],""platform"":""MacIntel"",""timezone"":""Europe/Berlin""}","4","3601.229999994603","","","1557921048357","5","","","[]","Aachen","false","false","9393.324999997276"
"","html-voicekey-response","52","397034","0.0-4.48-0.48","vhmftks08x343ge","{""user_agent"":""Mozilla/5.0 (Macintosh; Intel Mac OS X 10_14_4) AppleWebKit/537.36 (KHTML, like Gecko) Chrome/74.0.3729.131 Safari/537.36"",""on_chrome"":true,""on_mobile"":false,""language"":""en-US"",""screen_resolution"":[1440,900],""platform"":""MacIntel"",""timezone"":""Europe/Berlin""}","4","4811.509999993932","","","1557921061752","3","","","[]","Ingolstadt","false","false","5870.494999995572"
"","html-voicekey-response","53","399727","0.0-4.49-0.49","vhmftks08x343ge","{""user_agent"":""Mozilla/5.0 (Macintosh; Intel Mac OS X 10_14_4) AppleWebKit/537.36 (KHTML, like Gecko) Chrome/74.0.3729.131 Safari/537.36"",""on_chrome"":true,""on_mobile"":false,""language"":""en-US"",""screen_resolution"":[1440,900],""platform"":""MacIntel"",""timezone"":""Europe/Berlin""}","4","1454.7650000111666","","","1557921071625","10","","Heidelberg","[]","Heidelberg","true","false","2091.4300000004005"
"","html-voicekey-response","54","408443","0.0-4.50-0.50","vhmftks08x343ge","{""user_agent"":""Mozilla/5.0 (Macintosh; Intel Mac OS X 10_14_4) AppleWebKit/537.36 (KHTML, like Gecko) Chrome/74.0.3729.131 Safari/537.36"",""on_chrome"":true,""on_mobile"":false,""language"":""en-US"",""screen_resolution"":[1440,900],""platform"":""MacIntel"",""timezone"":""Europe/Berlin""}","4","7038.804999998165","","","1557921074319","3","","Ingolstadt","[]","Ingolstadt","true","false","8113.494999997783"
"","html-voicekey-response","55","421385","0.0-4.51-0.51","vhmftks08x343ge","{""user_agent"":""Mozilla/5.0 (Macintosh; Intel Mac OS X 10_14_4) AppleWebKit/537.36 (KHTML, like Gecko) Chrome/74.0.3729.131 Safari/537.36"",""on_chrome"":true,""on_mobile"":false,""language"":""en-US"",""screen_resolution"":[1440,900],""platform"":""MacIntel"",""timezone"":""Europe/Berlin""}","4","11813.329999998887","","","1557921083035","4","","Würzburg","[]","Würzburg","true","false","12339.214999999967"
"","html-voicekey-response","56","424711","0.0-4.52-0.52","vhmftks08x343ge","{""user_agent"":""Mozilla/5.0 (Macintosh; Intel Mac OS X 10_14_4) AppleWebKit/537.36 (KHTML, like Gecko) Chrome/74.0.3729.131 Safari/537.36"",""on_chrome"":true,""on_mobile"":false,""language"":""en-US"",""screen_resolution"":[1440,900],""platform"":""MacIntel"",""timezone"":""Europe/Berlin""}","4","1481.210000007041","","","1557921095977","3","","Ingolstadt","[]","Ingolstadt","true","false","2723.790000003646"
"","html-voicekey-response","57","438145","0.0-4.53-0.53","vhmftks08x343ge","{""user_agent"":""Mozilla/5.0 (Macintosh; Intel Mac OS X 10_14_4) AppleWebKit/537.36 (KHTML, like Gecko) Chrome/74.0.3729.131 Safari/537.36"",""on_chrome"":true,""on_mobile"":false,""language"":""en-US"",""screen_resolution"":[1440,900],""platform"":""MacIntel"",""timezone"":""Europe/Berlin""}","4","Infinity","","","1557921099303","5","","Aachen","[]","Aachen","true","false","12830.924999987474"
"","html-voicekey-response","58","444088","0.0-4.54-0.54","vhmftks08x343ge","{""user_agent"":""Mozilla/5.0 (Macintosh; Intel Mac OS X 10_14_4) AppleWebKit/537.36 (KHTML, like Gecko) Chrome/74.0.3729.131 Safari/537.36"",""on_chrome"":true,""on_mobile"":false,""language"":""en-US"",""screen_resolution"":[1440,900],""platform"":""MacIntel"",""timezone"":""Europe/Berlin""}","4","4081.2599999861327","","","1557921112737","3","","Ingolstadt","[]","Ingolstadt","true","false","5340.529999986757"
"","html-voicekey-response","59","446588","0.0-4.55-0.55","vhmftks08x343ge","{""user_agent"":""Mozilla/5.0 (Macintosh; Intel Mac OS X 10_14_4) AppleWebKit/537.36 (KHTML, like Gecko) Chrome/74.0.3729.131 Safari/537.36"",""on_chrome"":true,""on_mobile"":false,""language"":""en-US"",""screen_resolution"":[1440,900],""platform"":""MacIntel"",""timezone"":""Europe/Berlin""}","4","1389.5200000059326","","","1557921118679","4","","Würzburg","[]","Würzburg","true","false","1897.6799999945797"
"","html-voicekey-response","60","451572","0.0-4.56-0.56","vhmftks08x343ge","{""user_agent"":""Mozilla/5.0 (Macintosh; Intel Mac OS X 10_14_4) AppleWebKit/537.36 (KHTML, like Gecko) Chrome/74.0.3729.131 Safari/537.36"",""on_chrome"":true,""on_mobile"":false,""language"":""en-US"",""screen_resolution"":[1440,900],""platform"":""MacIntel"",""timezone"":""Europe/Berlin""}","4","3638.595000005653","","","1557921121180","3","","Ingolstadt","[]","Ingolstadt","true","false","4380.760000000009"
"","html-voicekey-response","61","455716","0.0-4.57-0.57","vhmftks08x343ge","{""user_agent"":""Mozilla/5.0 (Macintosh; Intel Mac OS X 10_14_4) AppleWebKit/537.36 (KHTML, like Gecko) Chrome/74.0.3729.131 Safari/537.36"",""on_chrome"":true,""on_mobile"":false,""language"":""en-US"",""screen_resolution"":[1440,900],""platform"":""MacIntel"",""timezone"":""Europe/Berlin""}","4","2698.3800000105753","","","1557921126165","5","","Aachen","[]","Aachen","true","false","3540.5100000061793"
"","html-voicekey-response","62","458233","0.0-4.58-0.58","vhmftks08x343ge","{""user_agent"":""Mozilla/5.0 (Macintosh; Intel Mac OS X 10_14_4) AppleWebKit/537.36 (KHTML, like Gecko) Chrome/74.0.3729.131 Safari/537.36"",""on_chrome"":true,""on_mobile"":false,""language"":""en-US"",""screen_resolution"":[1440,900],""platform"":""MacIntel"",""timezone"":""Europe/Berlin""}","4","1372.314999994915","","","1557921130308","9","","München","[]","München","true","false","1914.42499999539"
"","html-voicekey-response","63","462219","0.0-4.59-0.59","vhmftks08x343ge","{""user_agent"":""Mozilla/5.0 (Macintosh; Intel Mac OS X 10_14_4) AppleWebKit/537.36 (KHTML, like Gecko) Chrome/74.0.3729.131 Safari/537.36"",""on_chrome"":true,""on_mobile"":false,""language"":""en-US"",""screen_resolution"":[1440,900],""platform"":""MacIntel"",""timezone"":""Europe/Berlin""}","4","2754.2000000047033","","","1557921132825","3","","Ingolstadt","[]","Ingolstadt","true","false","3380.9150000015507"
"","html-voicekey-response","64","464655","0.0-4.60-0.60","vhmftks08x343ge","{""user_agent"":""Mozilla/5.0 (Macintosh; Intel Mac OS X 10_14_4) AppleWebKit/537.36 (KHTML, like Gecko) Chrome/74.0.3729.131 Safari/537.36"",""on_chrome"":true,""on_mobile"":false,""language"":""en-US"",""screen_resolution"":[1440,900],""platform"":""MacIntel"",""timezone"":""Europe/Berlin""}","4","1256.7050000014483","","","1557921136810","1","","Magdeburg","[]","Magdeburg","true","false","1833.4699999977602"
"","html-voicekey-response","65","467138","0.0-4.61-0.61","vhmftks08x343ge","{""user_agent"":""Mozilla/5.0 (Macintosh; Intel Mac OS X 10_14_4) AppleWebKit/537.36 (KHTML, like Gecko) Chrome/74.0.3729.131 Safari/537.36"",""on_chrome"":true,""on_mobile"":false,""language"":""en-US"",""screen_resolution"":[1440,900],""platform"":""MacIntel"",""timezone"":""Europe/Berlin""}","4","1288.1149999974064","","","1557921139246","3","","Ingolstadt","[]","Ingolstadt","true","false","1880.4649999947287"
"","html-voicekey-response","66","469621","0.0-4.62-0.62","vhmftks08x343ge","{""user_agent"":""Mozilla/5.0 (Macintosh; Intel Mac OS X 10_14_4) AppleWebKit/537.36 (KHTML, like Gecko) Chrome/74.0.3729.131 Safari/537.36"",""on_chrome"":true,""on_mobile"":false,""language"":""en-US"",""screen_resolution"":[1440,900],""platform"":""MacIntel"",""timezone"":""Europe/Berlin""}","4","100","","","1557921141729","2","","Berlin","[]","Berlin","true","false","1880.284999992"
"","html-voicekey-response","67","472087","0.0-4.63-0.63","vhmftks08x343ge","{""user_agent"":""Mozilla/5.0 (Macintosh; Intel Mac OS X 10_14_4) AppleWebKit/537.36 (KHTML, like Gecko) Chrome/74.0.3729.131 Safari/537.36"",""on_chrome"":true,""on_mobile"":false,""language"":""en-US"",""screen_resolution"":[1440,900],""platform"":""MacIntel"",""timezone"":""Europe/Berlin""}","4","1171.069999991078","","","1557921144213","3","","Ingolstadt","[]","Ingolstadt","true","false","1863.165000002482"
"","html-voicekey-response","68","474911","0.0-4.64-0.64","vhmftks08x343ge","{""user_agent"":""Mozilla/5.0 (Macintosh; Intel Mac OS X 10_14_4) AppleWebKit/537.36 (KHTML, like Gecko) Chrome/74.0.3729.131 Safari/537.36"",""on_chrome"":true,""on_mobile"":false,""language"":""en-US"",""screen_resolution"":[1440,900],""platform"":""MacIntel"",""timezone"":""Europe/Berlin""}","4","1562.9399999978255","","","1557921146679","5","","Aachen","[]","Aachen","true","false","2221.8599999905564"
"","html-voicekey-response","69","477611","0.0-4.65-0.65","vhmftks08x343ge","{""user_agent"":""Mozilla/5.0 (Macintosh; Intel Mac OS X 10_14_4) AppleWebKit/537.36 (KHTML, like Gecko) Chrome/74.0.3729.131 Safari/537.36"",""on_chrome"":true,""on_mobile"":false,""language"":""en-US"",""screen_resolution"":[1440,900],""platform"":""MacIntel"",""timezone"":""Europe/Berlin""}","4","1120.6800000016578","","","1557921149504","3","","Ingolstadt","[]","Ingolstadt","true","false","2096.0900000063702"
"","html-voicekey-response","70","480077","0.0-4.66-0.66","vhmftks08x343ge","{""user_agent"":""Mozilla/5.0 (Macintosh; Intel Mac OS X 10_14_4) AppleWebKit/537.36 (KHTML, like Gecko) Chrome/74.0.3729.131 Safari/537.36"",""on_chrome"":true,""on_mobile"":false,""language"":""en-US"",""screen_resolution"":[1440,900],""platform"":""MacIntel"",""timezone"":""Europe/Berlin""}","4","1070.5249999972061","","","1557921152204","4","","Würzburg","[]","Würzburg","true","false","1862.8150000004098"
"","html-voicekey-response","71","482895","0.0-4.67-0.67","vhmftks08x343ge","{""user_agent"":""Mozilla/5.0 (Macintosh; Intel Mac OS X 10_14_4) AppleWebKit/537.36 (KHTML, like Gecko) Chrome/74.0.3729.131 Safari/537.36"",""on_chrome"":true,""on_mobile"":false,""language"":""en-US"",""screen_resolution"":[1440,900],""platform"":""MacIntel"",""timezone"":""Europe/Berlin""}","4","1588.5800000049408","","","1557921154670","3","","Ingolstadt","[]","Ingolstadt","true","false","2214.080000005197"
"","html-voicekey-response","72","487418","0.0-4.68-0.68","vhmftks08x343ge","{""user_agent"":""Mozilla/5.0 (Macintosh; Intel Mac OS X 10_14_4) AppleWebKit/537.36 (KHTML, like Gecko) Chrome/74.0.3729.131 Safari/537.36"",""on_chrome"":true,""on_mobile"":false,""language"":""en-US"",""screen_resolution"":[1440,900],""platform"":""MacIntel"",""timezone"":""Europe/Berlin""}","4","100","","","1557921157488","11","","Alfeld","[]","Alfeld","true","true","3919.4100000022445"
"","html-voicekey-response","73","489834","0.0-4.69-0.69","vhmftks08x343ge","{""user_agent"":""Mozilla/5.0 (Macintosh; Intel Mac OS X 10_14_4) AppleWebKit/537.36 (KHTML, like Gecko) Chrome/74.0.3729.131 Safari/537.36"",""on_chrome"":true,""on_mobile"":false,""language"":""en-US"",""screen_resolution"":[1440,900],""platform"":""MacIntel"",""timezone"":""Europe/Berlin""}","4","921.164999986859","","","1557921162010","12","","Dessau","[]","Dessau","true","true","1813.689999995404"
"","html-voicekey-response","74","497520","0.0-4.70-0.70","vhmftks08x343ge","{""user_agent"":""Mozilla/5.0 (Macintosh; Intel Mac OS X 10_14_4) AppleWebKit/537.36 (KHTML, like Gecko) Chrome/74.0.3729.131 Safari/537.36"",""on_chrome"":true,""on_mobile"":false,""language"":""en-US"",""screen_resolution"":[1440,900],""platform"":""MacIntel"",""timezone"":""Europe/Berlin""}","4","2171.935000000149","","","1557921164427","11","","","[]","Alfeld","false","false","3679.984999995213"
"","html-voicekey-response","75","501075","0.0-4.71-0.71","vhmftks08x343ge","{""user_agent"":""Mozilla/5.0 (Macintosh; Intel Mac OS X 10_14_4) AppleWebKit/537.36 (KHTML, like Gecko) Chrome/74.0.3729.131 Safari/537.36"",""on_chrome"":true,""on_mobile"":false,""language"":""en-US"",""screen_resolution"":[1440,900],""platform"":""MacIntel"",""timezone"":""Europe/Berlin""}","4","2343.4150000046707","","","1557921172112","12","","Dessau","[]","Dessau","true","false","2952.4400000082096"
"","html-voicekey-response","76","507243","0.0-4.72-0.72","vhmftks08x343ge","{""user_agent"":""Mozilla/5.0 (Macintosh; Intel Mac OS X 10_14_4) AppleWebKit/537.36 (KHTML, like Gecko) Chrome/74.0.3729.131 Safari/537.36"",""on_chrome"":true,""on_mobile"":false,""language"":""en-US"",""screen_resolution"":[1440,900],""platform"":""MacIntel"",""timezone"":""Europe/Berlin""}","4","4854.20500000494","","","1557921175668","5","","Aachen","[]","Aachen","true","false","5563.435000003665"
"","html-voicekey-response","77","509686","0.0-4.73-0.73","vhmftks08x343ge","{""user_agent"":""Mozilla/5.0 (Macintosh; Intel Mac OS X 10_14_4) AppleWebKit/537.36 (KHTML, like Gecko) Chrome/74.0.3729.131 Safari/537.36"",""on_chrome"":true,""on_mobile"":false,""language"":""en-US"",""screen_resolution"":[1440,900],""platform"":""MacIntel"",""timezone"":""Europe/Berlin""}","4","1163.3049999889686","","","1557921181836","3","","Ingolstadt","[]","Ingolstadt","true","false","1839.1949999931967"
"","html-voicekey-response","78","512369","0.0-4.74-0.74","vhmftks08x343ge","{""user_agent"":""Mozilla/5.0 (Macintosh; Intel Mac OS X 10_14_4) AppleWebKit/537.36 (KHTML, like Gecko) Chrome/74.0.3729.131 Safari/537.36"",""on_chrome"":true,""on_mobile"":false,""language"":""en-US"",""screen_resolution"":[1440,900],""platform"":""MacIntel"",""timezone"":""Europe/Berlin""}","4","1355.1299999906682","","","1557921184278","13","","Chemnitz","[]","Chemnitz","true","true","2080.099999991944"
"","html-voicekey-response","79","515102","0.0-4.75-0.75","vhmftks08x343ge","{""user_agent"":""Mozilla/5.0 (Macintosh; Intel Mac OS X 10_14_4) AppleWebKit/537.36 (KHTML, like Gecko) Chrome/74.0.3729.131 Safari/537.36"",""on_chrome"":true,""on_mobile"":false,""language"":""en-US"",""screen_resolution"":[1440,900],""platform"":""MacIntel"",""timezone"":""Europe/Berlin""}","4","1338.160000008275","","","1557921186962","14","","Potsdam","[]","Potsdam","true","true","2129.1350000101374"
"","html-voicekey-response","80","522737","0.0-4.76-0.76","vhmftks08x343ge","{""user_agent"":""Mozilla/5.0 (Macintosh; Intel Mac OS X 10_14_4) AppleWebKit/537.36 (KHTML, like Gecko) Chrome/74.0.3729.131 Safari/537.36"",""on_chrome"":true,""on_mobile"":false,""language"":""en-US"",""screen_resolution"":[1440,900],""platform"":""MacIntel"",""timezone"":""Europe/Berlin""}","4","2670.749999999162","","","1557921189695","13","","","[]","Chemnitz","false","false","3630.2949999953853"
"","html-voicekey-response","81","525659","0.0-4.77-0.77","vhmftks08x343ge","{""user_agent"":""Mozilla/5.0 (Macintosh; Intel Mac OS X 10_14_4) AppleWebKit/537.36 (KHTML, like Gecko) Chrome/74.0.3729.131 Safari/537.36"",""on_chrome"":true,""on_mobile"":false,""language"":""en-US"",""screen_resolution"":[1440,900],""platform"":""MacIntel"",""timezone"":""Europe/Berlin""}","4","Infinity","","","1557921197330","14","","Potsdam","[]","Potsdam","true","false","2318.344999992405"
"","html-voicekey-response","82","529828","0.0-4.78-0.78","vhmftks08x343ge","{""user_agent"":""Mozilla/5.0 (Macintosh; Intel Mac OS X 10_14_4) AppleWebKit/537.36 (KHTML, like Gecko) Chrome/74.0.3729.131 Safari/537.36"",""on_chrome"":true,""on_mobile"":false,""language"":""en-US"",""screen_resolution"":[1440,900],""platform"":""MacIntel"",""timezone"":""Europe/Berlin""}","4","2787.445000003418","","","1557921200252","5","","Aachen","[]","Aachen","true","false","3563.6349999986123"
"","html-voicekey-response","83","532569","0.0-4.79-0.79","vhmftks08x343ge","{""user_agent"":""Mozilla/5.0 (Macintosh; Intel Mac OS X 10_14_4) AppleWebKit/537.36 (KHTML, like Gecko) Chrome/74.0.3729.131 Safari/537.36"",""on_chrome"":true,""on_mobile"":false,""language"":""en-US"",""screen_resolution"":[1440,900],""platform"":""MacIntel"",""timezone"":""Europe/Berlin""}","4","1362.1599999986124","","","1557921204421","9","","München","[]","München","true","false","2137.719999998808"
"","html-voicekey-response","84","535953","0.0-4.80-0.80","vhmftks08x343ge","{""user_agent"":""Mozilla/5.0 (Macintosh; Intel Mac OS X 10_14_4) AppleWebKit/537.36 (KHTML, like Gecko) Chrome/74.0.3729.131 Safari/537.36"",""on_chrome"":true,""on_mobile"":false,""language"":""en-US"",""screen_resolution"":[1440,900],""platform"":""MacIntel"",""timezone"":""Europe/Berlin""}","4","1971.2499999967172","","","1557921207162","6","","Dresden","[]","Dresden","true","false","2779.710000002524"
"","html-voicekey-response","85","539520","0.0-4.81-0.81","vhmftks08x343ge","{""user_agent"":""Mozilla/5.0 (Macintosh; Intel Mac OS X 10_14_4) AppleWebKit/537.36 (KHTML, like Gecko) Chrome/74.0.3729.131 Safari/537.36"",""on_chrome"":true,""on_mobile"":false,""language"":""en-US"",""screen_resolution"":[1440,900],""platform"":""MacIntel"",""timezone"":""Europe/Berlin""}","4","2155.2100000061096","","","1557921210545","7","","Erfurt","[]","Erfurt","true","false","2963.8149999955203"
"","html-voicekey-response","86","544494","0.0-4.82-0.82","vhmftks08x343ge","{""user_agent"":""Mozilla/5.0 (Macintosh; Intel Mac OS X 10_14_4) AppleWebKit/537.36 (KHTML, like Gecko) Chrome/74.0.3729.131 Safari/537.36"",""on_chrome"":true,""on_mobile"":false,""language"":""en-US"",""screen_resolution"":[1440,900],""platform"":""MacIntel"",""timezone"":""Europe/Berlin""}","4","3793.774999992666","","","1557921214114","11","","Alfeld","[]","Alfeld","true","false","4369.374999994761"
"","html-voicekey-response","87","549160","0.0-4.83-0.83","vhmftks08x343ge","{""user_agent"":""Mozilla/5.0 (Macintosh; Intel Mac OS X 10_14_4) AppleWebKit/537.36 (KHTML, like Gecko) Chrome/74.0.3729.131 Safari/537.36"",""on_chrome"":true,""on_mobile"":false,""language"":""en-US"",""screen_resolution"":[1440,900],""platform"":""MacIntel"",""timezone"":""Europe/Berlin""}","4","100","","","1557921219087","3","","Ingolstadt","[]","Ingolstadt","true","false","4062.1749999991152"
"","html-voicekey-response","88","552568","0.0-4.84-0.84","vhmftks08x343ge","{""user_agent"":""Mozilla/5.0 (Macintosh; Intel Mac OS X 10_14_4) AppleWebKit/537.36 (KHTML, like Gecko) Chrome/74.0.3729.131 Safari/537.36"",""on_chrome"":true,""on_mobile"":false,""language"":""en-US"",""screen_resolution"":[1440,900],""platform"":""MacIntel"",""timezone"":""Europe/Berlin""}","4","2252.9450000091224","","","1557921223754","5","","Aachen","[]","Aachen","true","false","2803.26500000956"
"","html-voicekey-response","89","555433","0.0-4.85-0.85","vhmftks08x343ge","{""user_agent"":""Mozilla/5.0 (Macintosh; Intel Mac OS X 10_14_4) AppleWebKit/537.36 (KHTML, like Gecko) Chrome/74.0.3729.131 Safari/537.36"",""on_chrome"":true,""on_mobile"":false,""language"":""en-US"",""screen_resolution"":[1440,900],""platform"":""MacIntel"",""timezone"":""Europe/Berlin""}","4","1504.20499999912","","","1557921227161","12","","Dessau","[]","Dessau","true","false","2261.9249999988824"
"","html-voicekey-response","90","558450","0.0-4.86-0.86","vhmftks08x343ge","{""user_agent"":""Mozilla/5.0 (Macintosh; Intel Mac OS X 10_14_4) AppleWebKit/537.36 (KHTML, like Gecko) Chrome/74.0.3729.131 Safari/537.36"",""on_chrome"":true,""on_mobile"":false,""language"":""en-US"",""screen_resolution"":[1440,900],""platform"":""MacIntel"",""timezone"":""Europe/Berlin""}","4","1621.0750000116882","","","1557921230026","15","","Nürnberg","[]","Nürnberg","true","true","2413.4699999995064"
"","html-voicekey-response","91","567802","0.0-4.87-0.87","vhmftks08x343ge","{""user_agent"":""Mozilla/5.0 (Macintosh; Intel Mac OS X 10_14_4) AppleWebKit/537.36 (KHTML, like Gecko) Chrome/74.0.3729.131 Safari/537.36"",""on_chrome"":true,""on_mobile"":false,""language"":""en-US"",""screen_resolution"":[1440,900],""platform"":""MacIntel"",""timezone"":""Europe/Berlin""}","4","4238.1950000070265","","","1557921233043","13","","","[]","Chemnitz","false","false","5346.940000003087"
"","html-voicekey-response","92","582609","0.0-4.88-0.88","vhmftks08x343ge","{""user_agent"":""Mozilla/5.0 (Macintosh; Intel Mac OS X 10_14_4) AppleWebKit/537.36 (KHTML, like Gecko) Chrome/74.0.3729.131 Safari/537.36"",""on_chrome"":true,""on_mobile"":false,""language"":""en-US"",""screen_resolution"":[1440,900],""platform"":""MacIntel"",""timezone"":""Europe/Berlin""}","4","10310.890000002319","","","1557921242394","15","","","[]","Nürnberg","false","false","10802.859999996144"
"","html-voicekey-response","93","585401","0.0-4.89-0.89","vhmftks08x343ge","{""user_agent"":""Mozilla/5.0 (Macintosh; Intel Mac OS X 10_14_4) AppleWebKit/537.36 (KHTML, like Gecko) Chrome/74.0.3729.131 Safari/537.36"",""on_chrome"":true,""on_mobile"":false,""language"":""en-US"",""screen_resolution"":[1440,900],""platform"":""MacIntel"",""timezone"":""Europe/Berlin""}","4","1412.3199999974809","","","1557921257203","14","","Potsdam","[]","Potsdam","true","false","2187.7999999996973"
"","html-voicekey-response","94","588485","0.0-4.90-0.90","vhmftks08x343ge","{""user_agent"":""Mozilla/5.0 (Macintosh; Intel Mac OS X 10_14_4) AppleWebKit/537.36 (KHTML, like Gecko) Chrome/74.0.3729.131 Safari/537.36"",""on_chrome"":true,""on_mobile"":false,""language"":""en-US"",""screen_resolution"":[1440,900],""platform"":""MacIntel"",""timezone"":""Europe/Berlin""}","4","1736.9500000002795","","","1557921259994","11","","Alfeld","[]","Alfeld","true","false","2479.6950000018114"
"","html-voicekey-response","95","592679","0.0-4.91-0.91","vhmftks08x343ge","{""user_agent"":""Mozilla/5.0 (Macintosh; Intel Mac OS X 10_14_4) AppleWebKit/537.36 (KHTML, like Gecko) Chrome/74.0.3729.131 Safari/537.36"",""on_chrome"":true,""on_mobile"":false,""language"":""en-US"",""screen_resolution"":[1440,900],""platform"":""MacIntel"",""timezone"":""Europe/Berlin""}","4","2804.0249999993016","","","1557921263077","5","","Aachen","[]","Aachen","true","false","3591.130000000703"
"","html-voicekey-response","96","596095","0.0-4.92-0.92","vhmftks08x343ge","{""user_agent"":""Mozilla/5.0 (Macintosh; Intel Mac OS X 10_14_4) AppleWebKit/537.36 (KHTML, like Gecko) Chrome/74.0.3729.131 Safari/537.36"",""on_chrome"":true,""on_mobile"":false,""language"":""en-US"",""screen_resolution"":[1440,900],""platform"":""MacIntel"",""timezone"":""Europe/Berlin""}","4","2086.3699999989244","","","1557921267272","4","","Würzburg","[]","Würzburg","true","false","2811.939999999595"
"","html-voicekey-response","97","599678","0.0-4.93-0.93","vhmftks08x343ge","{""user_agent"":""Mozilla/5.0 (Macintosh; Intel Mac OS X 10_14_4) AppleWebKit/537.36 (KHTML, like Gecko) Chrome/74.0.3729.131 Safari/537.36"",""on_chrome"":true,""on_mobile"":false,""language"":""en-US"",""screen_resolution"":[1440,900],""platform"":""MacIntel"",""timezone"":""Europe/Berlin""}","4","2203.4150000052528","","","1557921270688","16","","Schwangau","[]","Schwangau","true","true","2979.395000002114"
"","html-voicekey-response","98","603435","0.0-4.94-0.94","vhmftks08x343ge","{""user_agent"":""Mozilla/5.0 (Macintosh; Intel Mac OS X 10_14_4) AppleWebKit/537.36 (KHTML, like Gecko) Chrome/74.0.3729.131 Safari/537.36"",""on_chrome"":true,""on_mobile"":false,""language"":""en-US"",""screen_resolution"":[1440,900],""platform"":""MacIntel"",""timezone"":""Europe/Berlin""}","4","2577.205000003078","","","1557921274271","5","","Aachen","[]","Aachen","true","false","3152.7550000027986"
"","html-voicekey-response","99","606035","0.0-4.95-0.95","vhmftks08x343ge","{""user_agent"":""Mozilla/5.0 (Macintosh; Intel Mac OS X 10_14_4) AppleWebKit/537.36 (KHTML, like Gecko) Chrome/74.0.3729.131 Safari/537.36"",""on_chrome"":true,""on_mobile"":false,""language"":""en-US"",""screen_resolution"":[1440,900],""platform"":""MacIntel"",""timezone"":""Europe/Berlin""}","4","1404.5649999987568","","","1557921278028","16","","Schwangau","[]","Schwangau","true","false","1996.4250000048196"
"","html-voicekey-response","100","610435","0.0-4.96-0.96","vhmftks08x343ge","{""user_agent"":""Mozilla/5.0 (Macintosh; Intel Mac OS X 10_14_4) AppleWebKit/537.36 (KHTML, like Gecko) Chrome/74.0.3729.131 Safari/537.36"",""on_chrome"":true,""on_mobile"":false,""language"":""en-US"",""screen_resolution"":[1440,900],""platform"":""MacIntel"",""timezone"":""Europe/Berlin""}","4","2886.8549999986776","","","1557921280628","13","","Chemnitz","[]","Chemnitz","true","false","3795.7900000037625"
"","html-voicekey-response","101","613426","0.0-4.97-0.97","vhmftks08x343ge","{""user_agent"":""Mozilla/5.0 (Macintosh; Intel Mac OS X 10_14_4) AppleWebKit/537.36 (KHTML, like Gecko) Chrome/74.0.3729.131 Safari/537.36"",""on_chrome"":true,""on_mobile"":false,""language"":""en-US"",""screen_resolution"":[1440,900],""platform"":""MacIntel"",""timezone"":""Europe/Berlin""}","4","1644.2400000031107","","","1557921285029","8","","Gotha","[]","Gotha","true","false","2386.3300000084564"
"","html-voicekey-response","102","615760","0.0-4.98-0.98","vhmftks08x343ge","{""user_agent"":""Mozilla/5.0 (Macintosh; Intel Mac OS X 10_14_4) AppleWebKit/537.36 (KHTML, like Gecko) Chrome/74.0.3729.131 Safari/537.36"",""on_chrome"":true,""on_mobile"":false,""language"":""en-US"",""screen_resolution"":[1440,900],""platform"":""MacIntel"",""timezone"":""Europe/Berlin""}","4","1053.439999997709","","","1557921288020","17","","Leipzig","[]","Leipzig","true","true","1728.6149999999907"
"","html-voicekey-response","103","619726","0.0-4.99-0.99","vhmftks08x343ge","{""user_agent"":""Mozilla/5.0 (Macintosh; Intel Mac OS X 10_14_4) AppleWebKit/537.36 (KHTML, like Gecko) Chrome/74.0.3729.131 Safari/537.36"",""on_chrome"":true,""on_mobile"":false,""language"":""en-US"",""screen_resolution"":[1440,900],""platform"":""MacIntel"",""timezone"":""Europe/Berlin""}","4","2320.509999999404","","","1557921290353","18","","Forchheim","[]","Forchheim","true","true","3362.3099999967963"
"","html-voicekey-response","104","622942","0.0-4.100-0.100","vhmftks08x343ge","{""user_agent"":""Mozilla/5.0 (Macintosh; Intel Mac OS X 10_14_4) AppleWebKit/537.36 (KHTML, like Gecko) Chrome/74.0.3729.131 Safari/537.36"",""on_chrome"":true,""on_mobile"":false,""language"":""en-US"",""screen_resolution"":[1440,900],""platform"":""MacIntel"",""timezone"":""Europe/Berlin""}","4","1720.4100000033854","","","1557921294319","17","","Leipzig","[]","Leipzig","true","false","2611.9550000003073"
"","html-voicekey-response","105","634983","0.0-4.101-0.101","vhmftks08x343ge","{""user_agent"":""Mozilla/5.0 (Macintosh; Intel Mac OS X 10_14_4) AppleWebKit/537.36 (KHTML, like Gecko) Chrome/74.0.3729.131 Safari/537.36"",""on_chrome"":true,""on_mobile"":false,""language"":""en-US"",""screen_resolution"":[1440,900],""platform"":""MacIntel"",""timezone"":""Europe/Berlin""}","4","6810.030000002216","","","1557921297536","18","","","[]","Forchheim","false","false","8036.684999999125"
"","html-voicekey-response","106","638394","0.0-4.102-0.102","vhmftks08x343ge","{""user_agent"":""Mozilla/5.0 (Macintosh; Intel Mac OS X 10_14_4) AppleWebKit/537.36 (KHTML, like Gecko) Chrome/74.0.3729.131 Safari/537.36"",""on_chrome"":true,""on_mobile"":false,""language"":""en-US"",""screen_resolution"":[1440,900],""platform"":""MacIntel"",""timezone"":""Europe/Berlin""}","4","2002.3650000019466","","","1557921309576","5","","Aachen","[]","Aachen","true","false","2806.234999996377"
"","html-voicekey-response","107","648010","0.0-4.103-0.103","vhmftks08x343ge","{""user_agent"":""Mozilla/5.0 (Macintosh; Intel Mac OS X 10_14_4) AppleWebKit/537.36 (KHTML, like Gecko) Chrome/74.0.3729.131 Safari/537.36"",""on_chrome"":true,""on_mobile"":false,""language"":""en-US"",""screen_resolution"":[1440,900],""platform"":""MacIntel"",""timezone"":""Europe/Berlin""}","4","4286.954999997606","","","1557921312987","15","","","[]","Nürnberg","false","false","5612.220000009984"
"","html-voicekey-response","108","653151","0.0-4.104-0.104","vhmftks08x343ge","{""user_agent"":""Mozilla/5.0 (Macintosh; Intel Mac OS X 10_14_4) AppleWebKit/537.36 (KHTML, like Gecko) Chrome/74.0.3729.131 Safari/537.36"",""on_chrome"":true,""on_mobile"":false,""language"":""en-US"",""screen_resolution"":[1440,900],""platform"":""MacIntel"",""timezone"":""Europe/Berlin""}","4","3987.264999997779","","","1557921322603","3","","Ingolstadt","[]","Ingolstadt","true","false","4536.454999994021"
"","html-voicekey-response","109","660350","0.0-4.105-0.105","vhmftks08x343ge","{""user_agent"":""Mozilla/5.0 (Macintosh; Intel Mac OS X 10_14_4) AppleWebKit/537.36 (KHTML, like Gecko) Chrome/74.0.3729.131 Safari/537.36"",""on_chrome"":true,""on_mobile"":false,""language"":""en-US"",""screen_resolution"":[1440,900],""platform"":""MacIntel"",""timezone"":""Europe/Berlin""}","4","100","","","1557921327745","13","","","[]","Chemnitz","false","false","3194.1050000023097"
"","html-voicekey-response","110","663061","0.0-4.106-0.106","vhmftks08x343ge","{""user_agent"":""Mozilla/5.0 (Macintosh; Intel Mac OS X 10_14_4) AppleWebKit/537.36 (KHTML, like Gecko) Chrome/74.0.3729.131 Safari/537.36"",""on_chrome"":true,""on_mobile"":false,""language"":""en-US"",""screen_resolution"":[1440,900],""platform"":""MacIntel"",""timezone"":""Europe/Berlin""}","4","1320.750000007893","","","1557921334943","16","","Schwangau","[]","Schwangau","true","false","2107.770000002347"
"","html-voicekey-response","111","666444","0.0-4.107-0.107","vhmftks08x343ge","{""user_agent"":""Mozilla/5.0 (Macintosh; Intel Mac OS X 10_14_4) AppleWebKit/537.36 (KHTML, like Gecko) Chrome/74.0.3729.131 Safari/537.36"",""on_chrome"":true,""on_mobile"":false,""language"":""en-US"",""screen_resolution"":[1440,900],""platform"":""MacIntel"",""timezone"":""Europe/Berlin""}","4","1970.5100000081352","","","1557921337654","5","","Aachen","[]","Aachen","true","false","2778.860000005807"
"","html-voicekey-response","112","670261","0.0-4.108-0.108","vhmftks08x343ge","{""user_agent"":""Mozilla/5.0 (Macintosh; Intel Mac OS X 10_14_4) AppleWebKit/537.36 (KHTML, like Gecko) Chrome/74.0.3729.131 Safari/537.36"",""on_chrome"":true,""on_mobile"":false,""language"":""en-US"",""screen_resolution"":[1440,900],""platform"":""MacIntel"",""timezone"":""Europe/Berlin""}","4","2037.349999993085","","","1557921341037","17","","Leipzig","[]","Leipzig","true","false","3212.8849999862723"
"","html-voicekey-response","113","678843","0.0-4.109-0.109","vhmftks08x343ge","{""user_agent"":""Mozilla/5.0 (Macintosh; Intel Mac OS X 10_14_4) AppleWebKit/537.36 (KHTML, like Gecko) Chrome/74.0.3729.131 Safari/537.36"",""on_chrome"":true,""on_mobile"":false,""language"":""en-US"",""screen_resolution"":[1440,900],""platform"":""MacIntel"",""timezone"":""Europe/Berlin""}","4","3686.355000006943","","","1557921344854","18","","","[]","Forchheim","false","false","4578.645000001416"
"","html-voicekey-response","114","689374","0.0-4.110-0.110","vhmftks08x343ge","{""user_agent"":""Mozilla/5.0 (Macintosh; Intel Mac OS X 10_14_4) AppleWebKit/537.36 (KHTML, like Gecko) Chrome/74.0.3729.131 Safari/537.36"",""on_chrome"":true,""on_mobile"":false,""language"":""en-US"",""screen_resolution"":[1440,900],""platform"":""MacIntel"",""timezone"":""Europe/Berlin""}","4","5666.285000008274","","","1557921353437","13","","","[]","Chemnitz","false","false","6524.795000004815"
"","html-voicekey-response","115","693146","0.0-4.111-0.111","vhmftks08x343ge","{""user_agent"":""Mozilla/5.0 (Macintosh; Intel Mac OS X 10_14_4) AppleWebKit/537.36 (KHTML, like Gecko) Chrome/74.0.3729.131 Safari/537.36"",""on_chrome"":true,""on_mobile"":false,""language"":""en-US"",""screen_resolution"":[1440,900],""platform"":""MacIntel"",""timezone"":""Europe/Berlin""}","4","2108.010000005225","","","1557921363968","3","","Ingolstadt","[]","Ingolstadt","true","false","3166.735000006156"
"","html-voicekey-response","116","699347","0.0-4.112-0.112","vhmftks08x343ge","{""user_agent"":""Mozilla/5.0 (Macintosh; Intel Mac OS X 10_14_4) AppleWebKit/537.36 (KHTML, like Gecko) Chrome/74.0.3729.131 Safari/537.36"",""on_chrome"":true,""on_mobile"":false,""language"":""en-US"",""screen_resolution"":[1440,900],""platform"":""MacIntel"",""timezone"":""Europe/Berlin""}","4","5002.9849999935595","","","1557921367740","15","","Nürnberg","[]","Nürnberg","true","false","5594.295000002603"
"","html-voicekey-response","117","703018","0.0-4.113-0.113","vhmftks08x343ge","{""user_agent"":""Mozilla/5.0 (Macintosh; Intel Mac OS X 10_14_4) AppleWebKit/537.36 (KHTML, like Gecko) Chrome/74.0.3729.131 Safari/537.36"",""on_chrome"":true,""on_mobile"":false,""language"":""en-US"",""screen_resolution"":[1440,900],""platform"":""MacIntel"",""timezone"":""Europe/Berlin""}","4","2124.994999999972","","","1557921373941","11","","Alfeld","[]","Alfeld","true","false","3066.5250000020023"
"","html-voicekey-response","118","705685","0.0-4.114-0.114","vhmftks08x343ge","{""user_agent"":""Mozilla/5.0 (Macintosh; Intel Mac OS X 10_14_4) AppleWebKit/537.36 (KHTML, like Gecko) Chrome/74.0.3729.131 Safari/537.36"",""on_chrome"":true,""on_mobile"":false,""language"":""en-US"",""screen_resolution"":[1440,900],""platform"":""MacIntel"",""timezone"":""Europe/Berlin""}","4","1319.1900000036462","","","1557921377613","19","","Frankfurt","[]","Frankfurt","true","true","2061.8200000026263"
"","html-voicekey-response","119","708535","0.0-4.115-0.115","vhmftks08x343ge","{""user_agent"":""Mozilla/5.0 (Macintosh; Intel Mac OS X 10_14_4) AppleWebKit/537.36 (KHTML, like Gecko) Chrome/74.0.3729.131 Safari/537.36"",""on_chrome"":true,""on_mobile"":false,""language"":""en-US"",""screen_resolution"":[1440,900],""platform"":""MacIntel"",""timezone"":""Europe/Berlin""}","4","1334.9700000051876","","","1557921380280","20","","Hamburg ","[]","Hamburg ","true","true","2244.0499999938766"
"","html-voicekey-response","120","712512","0.0-4.116-0.116","vhmftks08x343ge","{""user_agent"":""Mozilla/5.0 (Macintosh; Intel Mac OS X 10_14_4) AppleWebKit/537.36 (KHTML, like Gecko) Chrome/74.0.3729.131 Safari/537.36"",""on_chrome"":true,""on_mobile"":false,""language"":""en-US"",""screen_resolution"":[1440,900],""platform"":""MacIntel"",""timezone"":""Europe/Berlin""}","4","2802.090000006347","","","1557921383129","19","","Frankfurt","[]","Frankfurt","true","false","3371.115000001737"
"","html-voicekey-response","121","714579","0.0-4.117-0.117","vhmftks08x343ge","{""user_agent"":""Mozilla/5.0 (Macintosh; Intel Mac OS X 10_14_4) AppleWebKit/537.36 (KHTML, like Gecko) Chrome/74.0.3729.131 Safari/537.36"",""on_chrome"":true,""on_mobile"":false,""language"":""en-US"",""screen_resolution"":[1440,900],""platform"":""MacIntel"",""timezone"":""Europe/Berlin""}","4","853.0549999939743","","","1557921387106","20","","Hamburg ","[]","Hamburg ","true","false","1462.2399999934714"
"","html-voicekey-response","122","721678","0.0-4.118-0.118","vhmftks08x343ge","{""user_agent"":""Mozilla/5.0 (Macintosh; Intel Mac OS X 10_14_4) AppleWebKit/537.36 (KHTML, like Gecko) Chrome/74.0.3729.131 Safari/537.36"",""on_chrome"":true,""on_mobile"":false,""language"":""en-US"",""screen_resolution"":[1440,900],""platform"":""MacIntel"",""timezone"":""Europe/Berlin""}","4","2452.205000003078","","","1557921389172","18","","","[]","Forchheim","false","false","3094.6450000046752"
"","html-voicekey-response","123","725135","0.0-4.119-0.119","vhmftks08x343ge","{""user_agent"":""Mozilla/5.0 (Macintosh; Intel Mac OS X 10_14_4) AppleWebKit/537.36 (KHTML, like Gecko) Chrome/74.0.3729.131 Safari/537.36"",""on_chrome"":true,""on_mobile"":false,""language"":""en-US"",""screen_resolution"":[1440,900],""platform"":""MacIntel"",""timezone"":""Europe/Berlin""}","4","2303.854999999958","","","1557921396272","13","","Chemnitz","[]","Chemnitz","true","false","2852.9949999938253"
"","html-voicekey-response","124","729219","0.0-4.120-0.120","vhmftks08x343ge","{""user_agent"":""Mozilla/5.0 (Macintosh; Intel Mac OS X 10_14_4) AppleWebKit/537.36 (KHTML, like Gecko) Chrome/74.0.3729.131 Safari/537.36"",""on_chrome"":true,""on_mobile"":false,""language"":""en-US"",""screen_resolution"":[1440,900],""platform"":""MacIntel"",""timezone"":""Europe/Berlin""}","4","2803.844999996573","","","1557921399729","15","","Nürnberg","[]","Nürnberg","true","false","3479.1849999892293"
"","html-voicekey-response","125","732485","0.0-4.121-0.121","vhmftks08x343ge","{""user_agent"":""Mozilla/5.0 (Macintosh; Intel Mac OS X 10_14_4) AppleWebKit/537.36 (KHTML, like Gecko) Chrome/74.0.3729.131 Safari/537.36"",""on_chrome"":true,""on_mobile"":false,""language"":""en-US"",""screen_resolution"":[1440,900],""platform"":""MacIntel"",""timezone"":""Europe/Berlin""}","4","1819.9549999934156","","","1557921403813","5","","Aachen","[]","Aachen","true","false","2661.4600000029895"
"","html-voicekey-response","126","741008","0.0-4.122-0.122","vhmftks08x343ge","{""user_agent"":""Mozilla/5.0 (Macintosh; Intel Mac OS X 10_14_4) AppleWebKit/537.36 (KHTML, like Gecko) Chrome/74.0.3729.131 Safari/537.36"",""on_chrome"":true,""on_mobile"":false,""language"":""en-US"",""screen_resolution"":[1440,900],""platform"":""MacIntel"",""timezone"":""Europe/Berlin""}","4","2608.9000000009314","","","1557921407080","10","","","[]","Heidelberg","false","false","4517.480000009527"
"","html-voicekey-response","127","744210","0.0-4.123-0.123","vhmftks08x343ge","{""user_agent"":""Mozilla/5.0 (Macintosh; Intel Mac OS X 10_14_4) AppleWebKit/537.36 (KHTML, like Gecko) Chrome/74.0.3729.131 Safari/537.36"",""on_chrome"":true,""on_mobile"":false,""language"":""en-US"",""screen_resolution"":[1440,900],""platform"":""MacIntel"",""timezone"":""Europe/Berlin""}","4","1487.4650000072784","","","1557921415602","21","","Konstanz","[]","Konstanz","true","true","2595.434999995632"
"","html-voicekey-response","128","756715","0.0-4.124-0.124","vhmftks08x343ge","{""user_agent"":""Mozilla/5.0 (Macintosh; Intel Mac OS X 10_14_4) AppleWebKit/537.36 (KHTML, like Gecko) Chrome/74.0.3729.131 Safari/537.36"",""on_chrome"":true,""on_mobile"":false,""language"":""en-US"",""screen_resolution"":[1440,900],""platform"":""MacIntel"",""timezone"":""Europe/Berlin""}","4","7408.5600000051545","","","1557921418804","18","","","[]","Forchheim","false","false","8501.000000003842"
"","html-voicekey-response","129","767939","0.0-4.125-0.125","vhmftks08x343ge","{""user_agent"":""Mozilla/5.0 (Macintosh; Intel Mac OS X 10_14_4) AppleWebKit/537.36 (KHTML, like Gecko) Chrome/74.0.3729.131 Safari/537.36"",""on_chrome"":true,""on_mobile"":false,""language"":""en-US"",""screen_resolution"":[1440,900],""platform"":""MacIntel"",""timezone"":""Europe/Berlin""}","4","4193.880000000563","","","1557921431309","21","","","[]","Konstanz","false","false","7219.035000001895"
"","html-voicekey-response","130","778800","0.0-4.126-0.126","vhmftks08x343ge","{""user_agent"":""Mozilla/5.0 (Macintosh; Intel Mac OS X 10_14_4) AppleWebKit/537.36 (KHTML, like Gecko) Chrome/74.0.3729.131 Safari/537.36"",""on_chrome"":true,""on_mobile"":false,""language"":""en-US"",""screen_resolution"":[1440,900],""platform"":""MacIntel"",""timezone"":""Europe/Berlin""}","4","6147.115000008698","","","1557921442533","15","","","[]","Nürnberg","false","false","6856.13500000909"
"","html-voicekey-response","131","795605","0.0-4.127-0.127","vhmftks08x343ge","{""user_agent"":""Mozilla/5.0 (Macintosh; Intel Mac OS X 10_14_4) AppleWebKit/537.36 (KHTML, like Gecko) Chrome/74.0.3729.131 Safari/537.36"",""on_chrome"":true,""on_mobile"":false,""language"":""en-US"",""screen_resolution"":[1440,900],""platform"":""MacIntel"",""timezone"":""Europe/Berlin""}","4","100","","","1557921453395","19","","","[]","Frankfurt","false","false","12799.17500000738"
"","html-voicekey-response","132","800151","0.0-4.128-0.128","vhmftks08x343ge","{""user_agent"":""Mozilla/5.0 (Macintosh; Intel Mac OS X 10_14_4) AppleWebKit/537.36 (KHTML, like Gecko) Chrome/74.0.3729.131 Safari/537.36"",""on_chrome"":true,""on_mobile"":false,""language"":""en-US"",""screen_resolution"":[1440,900],""platform"":""MacIntel"",""timezone"":""Europe/Berlin""}","4","3414.1849999958417","","","1557921470199","18","","Forchheim","[]","Forchheim","true","false","3941.0749999951804"
