"value","trial_type","trial_index","time_elapsed","internal_node_id","subject","browser_info","participant_number","rt","responses","view_history","presentation_start_time","id","text","response","keypresses","answer","correct","study","experimenter_rt"
"","call-function","0","8","0.0-0.0","k9dywzt5kzz46dq","{""user_agent"":""Mozilla/5.0 (Macintosh; Intel Mac OS X 10_14_4) AppleWebKit/537.36 (KHTML, like Gecko) Chrome/74.0.3729.131 Safari/537.36"",""on_chrome"":true,""on_mobile"":false,""language"":""en-US"",""screen_resolution"":[1440,900],""platform"":""MacIntel"",""timezone"":""Europe/Berlin""}","5","","","","","","","","","","","",""
"","survey-text","1","9055","0.0-1.0","k9dywzt5kzz46dq","{""user_agent"":""Mozilla/5.0 (Macintosh; Intel Mac OS X 10_14_4) AppleWebKit/537.36 (KHTML, like Gecko) Chrome/74.0.3729.131 Safari/537.36"",""on_chrome"":true,""on_mobile"":false,""language"":""en-US"",""screen_resolution"":[1440,900],""platform"":""MacIntel"",""timezone"":""Europe/Berlin""}","5","9043","{""Q0"":""5""}","","","","","","","","","",""
"","instructions","2","124128","0.0-2.0","k9dywzt5kzz46dq","{""user_agent"":""Mozilla/5.0 (Macintosh; Intel Mac OS X 10_14_4) AppleWebKit/537.36 (KHTML, like Gecko) Chrome/74.0.3729.131 Safari/537.36"",""on_chrome"":true,""on_mobile"":false,""language"":""en-US"",""screen_resolution"":[1440,900],""platform"":""MacIntel"",""timezone"":""Europe/Berlin""}","5","115072","","[{""page_index"":0,""viewing_time"":115072}]","","","","","","","","",""
"","call-function","3","124129","0.0-3.0","k9dywzt5kzz46dq","{""user_agent"":""Mozilla/5.0 (Macintosh; Intel Mac OS X 10_14_4) AppleWebKit/537.36 (KHTML, like Gecko) Chrome/74.0.3729.131 Safari/537.36"",""on_chrome"":true,""on_mobile"":false,""language"":""en-US"",""screen_resolution"":[1440,900],""platform"":""MacIntel"",""timezone"":""Europe/Berlin""}","5","","","","","","","","","","","",""
"","html-voicekey-response","4","129053","0.0-4.0-0.0","k9dywzt5kzz46dq","{""user_agent"":""Mozilla/5.0 (Macintosh; Intel Mac OS X 10_14_4) AppleWebKit/537.36 (KHTML, like Gecko) Chrome/74.0.3729.131 Safari/537.36"",""on_chrome"":true,""on_mobile"":false,""language"":""en-US"",""screen_resolution"":[1440,900],""platform"":""MacIntel"",""timezone"":""Europe/Berlin""}","5","3750.0200000011596","","","1557926913402","1","","Magdeburg","[]","Magdeburg","true","true","4321.479999998701"
"","html-voicekey-response","5","133936","0.0-4.1-0.1","k9dywzt5kzz46dq","{""user_agent"":""Mozilla/5.0 (Macintosh; Intel Mac OS X 10_14_4) AppleWebKit/537.36 (KHTML, like Gecko) Chrome/74.0.3729.131 Safari/537.36"",""on_chrome"":true,""on_mobile"":false,""language"":""en-US"",""screen_resolution"":[1440,900],""platform"":""MacIntel"",""timezone"":""Europe/Berlin""}","5","3555.5499999989756","","","1557926918326","1","","Magdeburg","[]","Magdeburg","true","false","4280.5999999982305"
"","html-voicekey-response","6","136937","0.0-4.2-0.2","k9dywzt5kzz46dq","{""user_agent"":""Mozilla/5.0 (Macintosh; Intel Mac OS X 10_14_4) AppleWebKit/537.36 (KHTML, like Gecko) Chrome/74.0.3729.131 Safari/537.36"",""on_chrome"":true,""on_mobile"":false,""language"":""en-US"",""screen_resolution"":[1440,900],""platform"":""MacIntel"",""timezone"":""Europe/Berlin""}","5","1739.930000005034","","","1557926923208","2","","Berlin","[]","Berlin","true","true","2398.4400000044843"
"","html-voicekey-response","7","138874","0.0-4.3-0.3","k9dywzt5kzz46dq","{""user_agent"":""Mozilla/5.0 (Macintosh; Intel Mac OS X 10_14_4) AppleWebKit/537.36 (KHTML, like Gecko) Chrome/74.0.3729.131 Safari/537.36"",""on_chrome"":true,""on_mobile"":false,""language"":""en-US"",""screen_resolution"":[1440,900],""platform"":""MacIntel"",""timezone"":""Europe/Berlin""}","5","427.4349999994505","","","1557926926210","2","","Berlin","[]","Berlin","true","false","1335.2000000013504"
"","html-voicekey-response","8","145191","0.0-4.4-0.4","k9dywzt5kzz46dq","{""user_agent"":""Mozilla/5.0 (Macintosh; Intel Mac OS X 10_14_4) AppleWebKit/537.36 (KHTML, like Gecko) Chrome/74.0.3729.131 Safari/537.36"",""on_chrome"":true,""on_mobile"":false,""language"":""en-US"",""screen_resolution"":[1440,900],""platform"":""MacIntel"",""timezone"":""Europe/Berlin""}","5","4890.204999997723","","","1557926928147","3","","Ingolstadt","[]","Ingolstadt","true","true","5715.079999994487"
"","html-voicekey-response","9","148642","0.0-4.5-0.5","k9dywzt5kzz46dq","{""user_agent"":""Mozilla/5.0 (Macintosh; Intel Mac OS X 10_14_4) AppleWebKit/537.36 (KHTML, like Gecko) Chrome/74.0.3729.131 Safari/537.36"",""on_chrome"":true,""on_mobile"":false,""language"":""en-US"",""screen_resolution"":[1440,900],""platform"":""MacIntel"",""timezone"":""Europe/Berlin""}","5","2005.8850000003354","","","1557926934464","4","","Würzburg","[]","Würzburg","true","true","2847.8249999898253"
"","html-voicekey-response","10","151750","0.0-4.6-0.6","k9dywzt5kzz46dq","{""user_agent"":""Mozilla/5.0 (Macintosh; Intel Mac OS X 10_14_4) AppleWebKit/537.36 (KHTML, like Gecko) Chrome/74.0.3729.131 Safari/537.36"",""on_chrome"":true,""on_mobile"":false,""language"":""en-US"",""screen_resolution"":[1440,900],""platform"":""MacIntel"",""timezone"":""Europe/Berlin""}","5","1780.7799999953481","","","1557926937914","3","","Ingolstadt","[]","Ingolstadt","true","false","2506.1600000044564"
"","html-voicekey-response","11","154599","0.0-4.7-0.7","k9dywzt5kzz46dq","{""user_agent"":""Mozilla/5.0 (Macintosh; Intel Mac OS X 10_14_4) AppleWebKit/537.36 (KHTML, like Gecko) Chrome/74.0.3729.131 Safari/537.36"",""on_chrome"":true,""on_mobile"":false,""language"":""en-US"",""screen_resolution"":[1440,900],""platform"":""MacIntel"",""timezone"":""Europe/Berlin""}","5","1504.8200000108686","","","1557926941023","4","","Würzburg","[]","Würzburg","true","false","2247.700000007171"
"","html-voicekey-response","12","157299","0.0-4.8-0.8","k9dywzt5kzz46dq","{""user_agent"":""Mozilla/5.0 (Macintosh; Intel Mac OS X 10_14_4) AppleWebKit/537.36 (KHTML, like Gecko) Chrome/74.0.3729.131 Safari/537.36"",""on_chrome"":true,""on_mobile"":false,""language"":""en-US"",""screen_resolution"":[1440,900],""platform"":""MacIntel"",""timezone"":""Europe/Berlin""}","5","1422.3100000034087","","","1557926943872","5","","Aachen","[]","Aachen","true","true","2097.0549999910872"
"","html-voicekey-response","13","160721","0.0-4.9-0.9","k9dywzt5kzz46dq","{""user_agent"":""Mozilla/5.0 (Macintosh; Intel Mac OS X 10_14_4) AppleWebKit/537.36 (KHTML, like Gecko) Chrome/74.0.3729.131 Safari/537.36"",""on_chrome"":true,""on_mobile"":false,""language"":""en-US"",""screen_resolution"":[1440,900],""platform"":""MacIntel"",""timezone"":""Europe/Berlin""}","5","1822.259999995213","","","1557926946571","6","","Dresden","[]","Dresden","true","true","2820.435000001453"
"","html-voicekey-response","14","163272","0.0-4.10-0.10","k9dywzt5kzz46dq","{""user_agent"":""Mozilla/5.0 (Macintosh; Intel Mac OS X 10_14_4) AppleWebKit/537.36 (KHTML, like Gecko) Chrome/74.0.3729.131 Safari/537.36"",""on_chrome"":true,""on_mobile"":false,""language"":""en-US"",""screen_resolution"":[1440,900],""platform"":""MacIntel"",""timezone"":""Europe/Berlin""}","5","1206.1049999991433","","","1557926949994","5","","Aachen","[]","Aachen","true","false","1949.4899999990594"
"","html-voicekey-response","15","165721","0.0-4.11-0.11","k9dywzt5kzz46dq","{""user_agent"":""Mozilla/5.0 (Macintosh; Intel Mac OS X 10_14_4) AppleWebKit/537.36 (KHTML, like Gecko) Chrome/74.0.3729.131 Safari/537.36"",""on_chrome"":true,""on_mobile"":false,""language"":""en-US"",""screen_resolution"":[1440,900],""platform"":""MacIntel"",""timezone"":""Europe/Berlin""}","5","1239.335000000056","","","1557926952545","6","","Dresden","[]","Dresden","true","false","1847.0800000068266"
"","html-voicekey-response","16","168722","0.0-4.12-0.12","k9dywzt5kzz46dq","{""user_agent"":""Mozilla/5.0 (Macintosh; Intel Mac OS X 10_14_4) AppleWebKit/537.36 (KHTML, like Gecko) Chrome/74.0.3729.131 Safari/537.36"",""on_chrome"":true,""on_mobile"":false,""language"":""en-US"",""screen_resolution"":[1440,900],""platform"":""MacIntel"",""timezone"":""Europe/Berlin""}","5","1688.9999999928755","","","1557926954994","7","","Erfurt","[]","Erfurt","true","true","2398.4999999956926"
"","html-voicekey-response","17","171762","0.0-4.13-0.13","k9dywzt5kzz46dq","{""user_agent"":""Mozilla/5.0 (Macintosh; Intel Mac OS X 10_14_4) AppleWebKit/537.36 (KHTML, like Gecko) Chrome/74.0.3729.131 Safari/537.36"",""on_chrome"":true,""on_mobile"":false,""language"":""en-US"",""screen_resolution"":[1440,900],""platform"":""MacIntel"",""timezone"":""Europe/Berlin""}","5","1762.9149999937276","","","1557926957995","8","","Gotha","[]","Gotha","true","true","2437.4749999988126"
"","html-voicekey-response","18","186112","0.0-4.14-0.14","k9dywzt5kzz46dq","{""user_agent"":""Mozilla/5.0 (Macintosh; Intel Mac OS X 10_14_4) AppleWebKit/537.36 (KHTML, like Gecko) Chrome/74.0.3729.131 Safari/537.36"",""on_chrome"":true,""on_mobile"":false,""language"":""en-US"",""screen_resolution"":[1440,900],""platform"":""MacIntel"",""timezone"":""Europe/Berlin""}","5","9522.525000001979","","","1557926961035","7","","","[]","Erfurt","false","false","10347.520000010263"
"","html-voicekey-response","19","189955","0.0-4.15-0.15","k9dywzt5kzz46dq","{""user_agent"":""Mozilla/5.0 (Macintosh; Intel Mac OS X 10_14_4) AppleWebKit/537.36 (KHTML, like Gecko) Chrome/74.0.3729.131 Safari/537.36"",""on_chrome"":true,""on_mobile"":false,""language"":""en-US"",""screen_resolution"":[1440,900],""platform"":""MacIntel"",""timezone"":""Europe/Berlin""}","5","2765.8400000016904","","","1557926975385","8","","Gotha","[]","Gotha","true","false","3240.7399999938207"
"","html-voicekey-response","20","192838","0.0-4.16-0.16","k9dywzt5kzz46dq","{""user_agent"":""Mozilla/5.0 (Macintosh; Intel Mac OS X 10_14_4) AppleWebKit/537.36 (KHTML, like Gecko) Chrome/74.0.3729.131 Safari/537.36"",""on_chrome"":true,""on_mobile"":false,""language"":""en-US"",""screen_resolution"":[1440,900],""platform"":""MacIntel"",""timezone"":""Europe/Berlin""}","5","1689.3499999949477","","","1557926979228","1","","Magdeburg","[]","Magdeburg","true","false","2281.009999991511"
"","html-voicekey-response","21","195529","0.0-4.17-0.17","k9dywzt5kzz46dq","{""user_agent"":""Mozilla/5.0 (Macintosh; Intel Mac OS X 10_14_4) AppleWebKit/537.36 (KHTML, like Gecko) Chrome/74.0.3729.131 Safari/537.36"",""on_chrome"":true,""on_mobile"":false,""language"":""en-US"",""screen_resolution"":[1440,900],""platform"":""MacIntel"",""timezone"":""Europe/Berlin""}","5","1379.8499999919209","","","1557926982111","2","","Berlin","[]","Berlin","true","false","2088.7349999975413"
"","html-voicekey-response","22","198578","0.0-4.18-0.18","k9dywzt5kzz46dq","{""user_agent"":""Mozilla/5.0 (Macintosh; Intel Mac OS X 10_14_4) AppleWebKit/537.36 (KHTML, like Gecko) Chrome/74.0.3729.131 Safari/537.36"",""on_chrome"":true,""on_mobile"":false,""language"":""en-US"",""screen_resolution"":[1440,900],""platform"":""MacIntel"",""timezone"":""Europe/Berlin""}","5","1572.275000007567","","","1557926984802","9","","München","[]","München","true","true","2447.440000003553"
"","html-voicekey-response","23","201278","0.0-4.19-0.19","k9dywzt5kzz46dq","{""user_agent"":""Mozilla/5.0 (Macintosh; Intel Mac OS X 10_14_4) AppleWebKit/537.36 (KHTML, like Gecko) Chrome/74.0.3729.131 Safari/537.36"",""on_chrome"":true,""on_mobile"":false,""language"":""en-US"",""screen_resolution"":[1440,900],""platform"":""MacIntel"",""timezone"":""Europe/Berlin""}","5","1722.714999990631","","","1557926987851","4","","Würzburg","[]","Würzburg","true","false","2097.5649999891175"
"","html-voicekey-response","24","206278","0.0-4.20-0.20","k9dywzt5kzz46dq","{""user_agent"":""Mozilla/5.0 (Macintosh; Intel Mac OS X 10_14_4) AppleWebKit/537.36 (KHTML, like Gecko) Chrome/74.0.3729.131 Safari/537.36"",""on_chrome"":true,""on_mobile"":false,""language"":""en-US"",""screen_resolution"":[1440,900],""platform"":""MacIntel"",""timezone"":""Europe/Berlin""}","5","3972.7249999940163","","","1557926990551","9","","München","[]","München","true","false","4398.109999994631"
"","html-voicekey-response","25","218907","0.0-4.21-0.21","k9dywzt5kzz46dq","{""user_agent"":""Mozilla/5.0 (Macintosh; Intel Mac OS X 10_14_4) AppleWebKit/537.36 (KHTML, like Gecko) Chrome/74.0.3729.131 Safari/537.36"",""on_chrome"":true,""on_mobile"":false,""language"":""en-US"",""screen_resolution"":[1440,900],""platform"":""MacIntel"",""timezone"":""Europe/Berlin""}","5","7017.430000001541","","","1557926995551","3","","","[]","Ingolstadt","false","false","8627.215000000433"
"","html-voicekey-response","26","222399","0.0-4.22-0.22","k9dywzt5kzz46dq","{""user_agent"":""Mozilla/5.0 (Macintosh; Intel Mac OS X 10_14_4) AppleWebKit/537.36 (KHTML, like Gecko) Chrome/74.0.3729.131 Safari/537.36"",""on_chrome"":true,""on_mobile"":false,""language"":""en-US"",""screen_resolution"":[1440,900],""platform"":""MacIntel"",""timezone"":""Europe/Berlin""}","5","2087.7350000026404","","","1557927008180","5","","Aachen","[]","Aachen","true","false","2890.0900000007823"
"","html-voicekey-response","27","224932","0.0-4.23-0.23","k9dywzt5kzz46dq","{""user_agent"":""Mozilla/5.0 (Macintosh; Intel Mac OS X 10_14_4) AppleWebKit/537.36 (KHTML, like Gecko) Chrome/74.0.3729.131 Safari/537.36"",""on_chrome"":true,""on_mobile"":false,""language"":""en-US"",""screen_resolution"":[1440,900],""platform"":""MacIntel"",""timezone"":""Europe/Berlin""}","5","Infinity","","","1557927011673","6","","Dresden","[]","Dresden","true","false","1930.7650000118883"
"","html-voicekey-response","28","227515","0.0-4.24-0.24","k9dywzt5kzz46dq","{""user_agent"":""Mozilla/5.0 (Macintosh; Intel Mac OS X 10_14_4) AppleWebKit/537.36 (KHTML, like Gecko) Chrome/74.0.3729.131 Safari/537.36"",""on_chrome"":true,""on_mobile"":false,""language"":""en-US"",""screen_resolution"":[1440,900],""platform"":""MacIntel"",""timezone"":""Europe/Berlin""}","5","1389.3650000043913","","","1557927014205","7","","Erfurt","[]","Erfurt","true","false","1981.4550000010058"
"","html-voicekey-response","29","230634","0.0-4.25-0.25","k9dywzt5kzz46dq","{""user_agent"":""Mozilla/5.0 (Macintosh; Intel Mac OS X 10_14_4) AppleWebKit/537.36 (KHTML, like Gecko) Chrome/74.0.3729.131 Safari/537.36"",""on_chrome"":true,""on_mobile"":false,""language"":""en-US"",""screen_resolution"":[1440,900],""platform"":""MacIntel"",""timezone"":""Europe/Berlin""}","5","1423.1649999945425","","","1557927016788","10","","Heidelberg","[]","Heidelberg","true","true","2514.809999993304"
"","html-voicekey-response","30","235073","0.0-4.26-0.26","k9dywzt5kzz46dq","{""user_agent"":""Mozilla/5.0 (Macintosh; Intel Mac OS X 10_14_4) AppleWebKit/537.36 (KHTML, like Gecko) Chrome/74.0.3729.131 Safari/537.36"",""on_chrome"":true,""on_mobile"":false,""language"":""en-US"",""screen_resolution"":[1440,900],""platform"":""MacIntel"",""timezone"":""Europe/Berlin""}","5","1594.95000000773","","","1557927019907","11","","Alfeld","[]","Alfeld","true","true","3837.4100000073668"
"","html-voicekey-response","31","238623","0.0-4.27-0.27","k9dywzt5kzz46dq","{""user_agent"":""Mozilla/5.0 (Macintosh; Intel Mac OS X 10_14_4) AppleWebKit/537.36 (KHTML, like Gecko) Chrome/74.0.3729.131 Safari/537.36"",""on_chrome"":true,""on_mobile"":false,""language"":""en-US"",""screen_resolution"":[1440,900],""platform"":""MacIntel"",""timezone"":""Europe/Berlin""}","5","1970.5550000015414","","","1557927024347","10","","Heidelberg","[]","Heidelberg","true","false","2946.574999994482"
"","html-voicekey-response","32","242490","0.0-4.28-0.28","k9dywzt5kzz46dq","{""user_agent"":""Mozilla/5.0 (Macintosh; Intel Mac OS X 10_14_4) AppleWebKit/537.36 (KHTML, like Gecko) Chrome/74.0.3729.131 Safari/537.36"",""on_chrome"":true,""on_mobile"":false,""language"":""en-US"",""screen_resolution"":[1440,900],""platform"":""MacIntel"",""timezone"":""Europe/Berlin""}","5","2322.920000000368","","","1557927027896","11","","Alfeld","[]","Alfeld","true","false","3265.125000005355"
"","html-voicekey-response","33","245362","0.0-4.29-0.29","k9dywzt5kzz46dq","{""user_agent"":""Mozilla/5.0 (Macintosh; Intel Mac OS X 10_14_4) AppleWebKit/537.36 (KHTML, like Gecko) Chrome/74.0.3729.131 Safari/537.36"",""on_chrome"":true,""on_mobile"":false,""language"":""en-US"",""screen_resolution"":[1440,900],""platform"":""MacIntel"",""timezone"":""Europe/Berlin""}","5","1611.9350000024774","","","1557927031763","8","","Gotha","[]","Gotha","true","false","2270.6100000068545"
"","html-voicekey-response","34","248030","0.0-4.30-0.30","k9dywzt5kzz46dq","{""user_agent"":""Mozilla/5.0 (Macintosh; Intel Mac OS X 10_14_4) AppleWebKit/537.36 (KHTML, like Gecko) Chrome/74.0.3729.131 Safari/537.36"",""on_chrome"":true,""on_mobile"":false,""language"":""en-US"",""screen_resolution"":[1440,900],""platform"":""MacIntel"",""timezone"":""Europe/Berlin""}","5","1306.635000009765","","","1557927034636","9","","München","[]","München","true","false","2064.9150000099326"
"","html-voicekey-response","35","252062","0.0-4.31-0.31","k9dywzt5kzz46dq","{""user_agent"":""Mozilla/5.0 (Macintosh; Intel Mac OS X 10_14_4) AppleWebKit/537.36 (KHTML, like Gecko) Chrome/74.0.3729.131 Safari/537.36"",""on_chrome"":true,""on_mobile"":false,""language"":""en-US"",""screen_resolution"":[1440,900],""platform"":""MacIntel"",""timezone"":""Europe/Berlin""}","5","1605.2049999942305","","","1557927037303","3","","Ingolstadt","[]","Ingolstadt","true","false","3430.7999999873573"
"","html-voicekey-response","36","255037","0.0-4.32-0.32","k9dywzt5kzz46dq","{""user_agent"":""Mozilla/5.0 (Macintosh; Intel Mac OS X 10_14_4) AppleWebKit/537.36 (KHTML, like Gecko) Chrome/74.0.3729.131 Safari/537.36"",""on_chrome"":true,""on_mobile"":false,""language"":""en-US"",""screen_resolution"":[1440,900],""platform"":""MacIntel"",""timezone"":""Europe/Berlin""}","5","1579.1600000028034","","","1557927041336","12","","Dessau","[]","Dessau","true","true","2371.770000012475"
"","html-voicekey-response","37","258019","0.0-4.33-0.33","k9dywzt5kzz46dq","{""user_agent"":""Mozilla/5.0 (Macintosh; Intel Mac OS X 10_14_4) AppleWebKit/537.36 (KHTML, like Gecko) Chrome/74.0.3729.131 Safari/537.36"",""on_chrome"":true,""on_mobile"":false,""language"":""en-US"",""screen_resolution"":[1440,900],""platform"":""MacIntel"",""timezone"":""Europe/Berlin""}","5","1522.5799999987707","","","1557927044310","13","","Chemnitz","[]","Chemnitz","true","true","2380.7700000033947"
"","html-voicekey-response","38","262054","0.0-4.34-0.34","k9dywzt5kzz46dq","{""user_agent"":""Mozilla/5.0 (Macintosh; Intel Mac OS X 10_14_4) AppleWebKit/537.36 (KHTML, like Gecko) Chrome/74.0.3729.131 Safari/537.36"",""on_chrome"":true,""on_mobile"":false,""language"":""en-US"",""screen_resolution"":[1440,900],""platform"":""MacIntel"",""timezone"":""Europe/Berlin""}","5","3089.925000001886","","","1557927047292","12","","Dessau","[]","Dessau","true","false","3432.795000000624"
"","html-voicekey-response","39","269260","0.0-4.35-0.35","k9dywzt5kzz46dq","{""user_agent"":""Mozilla/5.0 (Macintosh; Intel Mac OS X 10_14_4) AppleWebKit/537.36 (KHTML, like Gecko) Chrome/74.0.3729.131 Safari/537.36"",""on_chrome"":true,""on_mobile"":false,""language"":""en-US"",""screen_resolution"":[1440,900],""platform"":""MacIntel"",""timezone"":""Europe/Berlin""}","5","5904.550000000954","","","1557927051327","13","","Chemnitz","[]","Chemnitz","true","false","6604.785000003176"
"","html-voicekey-response","40","272243","0.0-4.36-0.36","k9dywzt5kzz46dq","{""user_agent"":""Mozilla/5.0 (Macintosh; Intel Mac OS X 10_14_4) AppleWebKit/537.36 (KHTML, like Gecko) Chrome/74.0.3729.131 Safari/537.36"",""on_chrome"":true,""on_mobile"":false,""language"":""en-US"",""screen_resolution"":[1440,900],""platform"":""MacIntel"",""timezone"":""Europe/Berlin""}","5","1589.394999997085","","","1557927058534","6","","Dresden","[]","Dresden","true","false","2381.1750000022585"
"","html-voicekey-response","41","275201","0.0-4.37-0.37","k9dywzt5kzz46dq","{""user_agent"":""Mozilla/5.0 (Macintosh; Intel Mac OS X 10_14_4) AppleWebKit/537.36 (KHTML, like Gecko) Chrome/74.0.3729.131 Safari/537.36"",""on_chrome"":true,""on_mobile"":false,""language"":""en-US"",""screen_resolution"":[1440,900],""platform"":""MacIntel"",""timezone"":""Europe/Berlin""}","5","1589.4350000106265","","","1557927061517","14","","Potsdam","[]","Potsdam","true","true","2354.990000007092"
"","html-voicekey-response","42","277918","0.0-4.38-0.38","k9dywzt5kzz46dq","{""user_agent"":""Mozilla/5.0 (Macintosh; Intel Mac OS X 10_14_4) AppleWebKit/537.36 (KHTML, like Gecko) Chrome/74.0.3729.131 Safari/537.36"",""on_chrome"":true,""on_mobile"":false,""language"":""en-US"",""screen_resolution"":[1440,900],""platform"":""MacIntel"",""timezone"":""Europe/Berlin""}","5","1206.7749999931316","","","1557927064474","15","","Nürnberg","[]","Nürnberg","true","true","2115.590000001248"
"","html-voicekey-response","43","280833","0.0-4.39-0.39","k9dywzt5kzz46dq","{""user_agent"":""Mozilla/5.0 (Macintosh; Intel Mac OS X 10_14_4) AppleWebKit/537.36 (KHTML, like Gecko) Chrome/74.0.3729.131 Safari/537.36"",""on_chrome"":true,""on_mobile"":false,""language"":""en-US"",""screen_resolution"":[1440,900],""platform"":""MacIntel"",""timezone"":""Europe/Berlin""}","5","1588.640000010701","","","1557927067191","14","","Potsdam","[]","Potsdam","true","false","2313.5200000106124"
"","html-voicekey-response","44","283868","0.0-4.40-0.40","k9dywzt5kzz46dq","{""user_agent"":""Mozilla/5.0 (Macintosh; Intel Mac OS X 10_14_4) AppleWebKit/537.36 (KHTML, like Gecko) Chrome/74.0.3729.131 Safari/537.36"",""on_chrome"":true,""on_mobile"":false,""language"":""en-US"",""screen_resolution"":[1440,900],""platform"":""MacIntel"",""timezone"":""Europe/Berlin""}","5","1474.2050000002841","","","1557927070106","15","","Nürnberg","[]","Nürnberg","true","false","2432.119999997667"
"","html-voicekey-response","45","309358","0.0-4.41-0.41","k9dywzt5kzz46dq","{""user_agent"":""Mozilla/5.0 (Macintosh; Intel Mac OS X 10_14_4) AppleWebKit/537.36 (KHTML, like Gecko) Chrome/74.0.3729.131 Safari/537.36"",""on_chrome"":true,""on_mobile"":false,""language"":""en-US"",""screen_resolution"":[1440,900],""platform"":""MacIntel"",""timezone"":""Europe/Berlin""}","5","20762.98999999729","","","1557927073140","10","","","[]","Heidelberg","false","false","21488.280000005034"
"","html-voicekey-response","46","314459","0.0-4.42-0.42","k9dywzt5kzz46dq","{""user_agent"":""Mozilla/5.0 (Macintosh; Intel Mac OS X 10_14_4) AppleWebKit/537.36 (KHTML, like Gecko) Chrome/74.0.3729.131 Safari/537.36"",""on_chrome"":true,""on_mobile"":false,""language"":""en-US"",""screen_resolution"":[1440,900],""platform"":""MacIntel"",""timezone"":""Europe/Berlin""}","5","3770.855000004149","","","1557927098633","11","","Alfeld","[]","Alfeld","true","false","4497.105000002193"
"","html-voicekey-response","47","317533","0.0-4.43-0.43","k9dywzt5kzz46dq","{""user_agent"":""Mozilla/5.0 (Macintosh; Intel Mac OS X 10_14_4) AppleWebKit/537.36 (KHTML, like Gecko) Chrome/74.0.3729.131 Safari/537.36"",""on_chrome"":true,""on_mobile"":false,""language"":""en-US"",""screen_resolution"":[1440,900],""platform"":""MacIntel"",""timezone"":""Europe/Berlin""}","5","1672.644999993127","","","1557927103732","12","","Dessau","[]","Dessau","true","false","2472.135000003618"
"","html-voicekey-response","48","320249","0.0-4.44-0.44","k9dywzt5kzz46dq","{""user_agent"":""Mozilla/5.0 (Macintosh; Intel Mac OS X 10_14_4) AppleWebKit/537.36 (KHTML, like Gecko) Chrome/74.0.3729.131 Safari/537.36"",""on_chrome"":true,""on_mobile"":false,""language"":""en-US"",""screen_resolution"":[1440,900],""platform"":""MacIntel"",""timezone"":""Europe/Berlin""}","5","1189.3099999959582","","","1557927106806","13","","Chemnitz","[]","Chemnitz","true","false","2114.610000004177"
"","html-voicekey-response","49","323482","0.0-4.45-0.45","k9dywzt5kzz46dq","{""user_agent"":""Mozilla/5.0 (Macintosh; Intel Mac OS X 10_14_4) AppleWebKit/537.36 (KHTML, like Gecko) Chrome/74.0.3729.131 Safari/537.36"",""on_chrome"":true,""on_mobile"":false,""language"":""en-US"",""screen_resolution"":[1440,900],""platform"":""MacIntel"",""timezone"":""Europe/Berlin""}","5","1806.2549999975367","","","1557927109523","16","","Schwangau","[]","Schwangau","true","true","2630.9699999983422"
"","html-voicekey-response","50","326249","0.0-4.46-0.46","k9dywzt5kzz46dq","{""user_agent"":""Mozilla/5.0 (Macintosh; Intel Mac OS X 10_14_4) AppleWebKit/537.36 (KHTML, like Gecko) Chrome/74.0.3729.131 Safari/537.36"",""on_chrome"":true,""on_mobile"":false,""language"":""en-US"",""screen_resolution"":[1440,900],""platform"":""MacIntel"",""timezone"":""Europe/Berlin""}","5","1571.8799999975367","","","1557927112756","14","","Potsdam","[]","Potsdam","true","false","2164.199999999255"
"","html-voicekey-response","51","331156","0.0-4.47-0.47","k9dywzt5kzz46dq","{""user_agent"":""Mozilla/5.0 (Macintosh; Intel Mac OS X 10_14_4) AppleWebKit/537.36 (KHTML, like Gecko) Chrome/74.0.3729.131 Safari/537.36"",""on_chrome"":true,""on_mobile"":false,""language"":""en-US"",""screen_resolution"":[1440,900],""platform"":""MacIntel"",""timezone"":""Europe/Berlin""}","5","3056.2299999963493","","","1557927115522","16","","Schwangau","[]","Schwangau","true","false","4305.0899999943795"
"","html-voicekey-response","52","336606","0.0-4.48-0.48","k9dywzt5kzz46dq","{""user_agent"":""Mozilla/5.0 (Macintosh; Intel Mac OS X 10_14_4) AppleWebKit/537.36 (KHTML, like Gecko) Chrome/74.0.3729.131 Safari/537.36"",""on_chrome"":true,""on_mobile"":false,""language"":""en-US"",""screen_resolution"":[1440,900],""platform"":""MacIntel"",""timezone"":""Europe/Berlin""}","5","Infinity","","","1557927120429","15","","Nürnberg","[]","Nürnberg","true","false","4848.245000001043"
"","html-voicekey-response","53","339764","0.0-4.49-0.49","k9dywzt5kzz46dq","{""user_agent"":""Mozilla/5.0 (Macintosh; Intel Mac OS X 10_14_4) AppleWebKit/537.36 (KHTML, like Gecko) Chrome/74.0.3729.131 Safari/537.36"",""on_chrome"":true,""on_mobile"":false,""language"":""en-US"",""screen_resolution"":[1440,900],""platform"":""MacIntel"",""timezone"":""Europe/Berlin""}","5","1771.5899999983144","","","1557927125879","10","","Heidelberg","[]","Heidelberg","true","false","2556.5499999938766"
"","html-voicekey-response","54","342214","0.0-4.50-0.50","k9dywzt5kzz46dq","{""user_agent"":""Mozilla/5.0 (Macintosh; Intel Mac OS X 10_14_4) AppleWebKit/537.36 (KHTML, like Gecko) Chrome/74.0.3729.131 Safari/537.36"",""on_chrome"":true,""on_mobile"":false,""language"":""en-US"",""screen_resolution"":[1440,900],""platform"":""MacIntel"",""timezone"":""Europe/Berlin""}","5","1090.0999999956462","","","1557927129037","17","","Leipzig","[]","Leipzig","true","true","1847.555000000284"
"","html-voicekey-response","55","345380","0.0-4.51-0.51","k9dywzt5kzz46dq","{""user_agent"":""Mozilla/5.0 (Macintosh; Intel Mac OS X 10_14_4) AppleWebKit/537.36 (KHTML, like Gecko) Chrome/74.0.3729.131 Safari/537.36"",""on_chrome"":true,""on_mobile"":false,""language"":""en-US"",""screen_resolution"":[1440,900],""platform"":""MacIntel"",""timezone"":""Europe/Berlin""}","5","1523.9600000002888","","","1557927131487","18","","Forchheim","[]","Forchheim","true","true","2564.5050000021"
"","html-voicekey-response","56","348231","0.0-4.52-0.52","k9dywzt5kzz46dq","{""user_agent"":""Mozilla/5.0 (Macintosh; Intel Mac OS X 10_14_4) AppleWebKit/537.36 (KHTML, like Gecko) Chrome/74.0.3729.131 Safari/537.36"",""on_chrome"":true,""on_mobile"":false,""language"":""en-US"",""screen_resolution"":[1440,900],""platform"":""MacIntel"",""timezone"":""Europe/Berlin""}","5","1406.7100000045962","","","1557927134654","17","","Leipzig","[]","Leipzig","true","false","2248.6900000076275"
"","html-voicekey-response","57","351352","0.0-4.53-0.53","k9dywzt5kzz46dq","{""user_agent"":""Mozilla/5.0 (Macintosh; Intel Mac OS X 10_14_4) AppleWebKit/537.36 (KHTML, like Gecko) Chrome/74.0.3729.131 Safari/537.36"",""on_chrome"":true,""on_mobile"":false,""language"":""en-US"",""screen_resolution"":[1440,900],""platform"":""MacIntel"",""timezone"":""Europe/Berlin""}","5","1642.7849999980303","","","1557927137504","18","","Forchheim","[]","Forchheim","true","false","2519.589999996242"
"","html-voicekey-response","58","355218","0.0-4.54-0.54","k9dywzt5kzz46dq","{""user_agent"":""Mozilla/5.0 (Macintosh; Intel Mac OS X 10_14_4) AppleWebKit/537.36 (KHTML, like Gecko) Chrome/74.0.3729.131 Safari/537.36"",""on_chrome"":true,""on_mobile"":false,""language"":""en-US"",""screen_resolution"":[1440,900],""platform"":""MacIntel"",""timezone"":""Europe/Berlin""}","5","2355.649999992084","","","1557927140625","11","","Alfeld","[]","Alfeld","true","false","3264.5599999959813"
"","html-voicekey-response","59","358119","0.0-4.55-0.55","k9dywzt5kzz46dq","{""user_agent"":""Mozilla/5.0 (Macintosh; Intel Mac OS X 10_14_4) AppleWebKit/537.36 (KHTML, like Gecko) Chrome/74.0.3729.131 Safari/537.36"",""on_chrome"":true,""on_mobile"":false,""language"":""en-US"",""screen_resolution"":[1440,900],""platform"":""MacIntel"",""timezone"":""Europe/Berlin""}","5","1339.3349999913248","","","1557927144491","19","","Frankfurt","[]","Frankfurt","true","true","2298.4699999942677"
"","html-voicekey-response","60","360893","0.0-4.56-0.56","k9dywzt5kzz46dq","{""user_agent"":""Mozilla/5.0 (Macintosh; Intel Mac OS X 10_14_4) AppleWebKit/537.36 (KHTML, like Gecko) Chrome/74.0.3729.131 Safari/537.36"",""on_chrome"":true,""on_mobile"":false,""language"":""en-US"",""screen_resolution"":[1440,900],""platform"":""MacIntel"",""timezone"":""Europe/Berlin""}","5","1347.1950000037673","","","1557927147391","20","","Hamburg ","[]","Hamburg ","true","true","2172.405000004801"
"","html-voicekey-response","61","367225","0.0-4.57-0.57","k9dywzt5kzz46dq","{""user_agent"":""Mozilla/5.0 (Macintosh; Intel Mac OS X 10_14_4) AppleWebKit/537.36 (KHTML, like Gecko) Chrome/74.0.3729.131 Safari/537.36"",""on_chrome"":true,""on_mobile"":false,""language"":""en-US"",""screen_resolution"":[1440,900],""platform"":""MacIntel"",""timezone"":""Europe/Berlin""}","5","5155.825000003306","","","1557927150165","19","","Frankfurt","[]","Frankfurt","true","false","5731.37000000861"
"","html-voicekey-response","62","370177","0.0-4.58-0.58","k9dywzt5kzz46dq","{""user_agent"":""Mozilla/5.0 (Macintosh; Intel Mac OS X 10_14_4) AppleWebKit/537.36 (KHTML, like Gecko) Chrome/74.0.3729.131 Safari/537.36"",""on_chrome"":true,""on_mobile"":false,""language"":""en-US"",""screen_resolution"":[1440,900],""platform"":""MacIntel"",""timezone"":""Europe/Berlin""}","5","1656.7200000079815","","","1557927156498","20","","Hamburg ","[]","Hamburg ","true","false","2349.050000004354"
"","html-voicekey-response","63","374554","0.0-4.59-0.59","k9dywzt5kzz46dq","{""user_agent"":""Mozilla/5.0 (Macintosh; Intel Mac OS X 10_14_4) AppleWebKit/537.36 (KHTML, like Gecko) Chrome/74.0.3729.131 Safari/537.36"",""on_chrome"":true,""on_mobile"":false,""language"":""en-US"",""screen_resolution"":[1440,900],""platform"":""MacIntel"",""timezone"":""Europe/Berlin""}","5","2931.460000001453","","","1557927159450","15","","Nürnberg","[]","Nürnberg","true","false","3774.535000004107"
"","html-voicekey-response","64","377587","0.0-4.60-0.60","k9dywzt5kzz46dq","{""user_agent"":""Mozilla/5.0 (Macintosh; Intel Mac OS X 10_14_4) AppleWebKit/537.36 (KHTML, like Gecko) Chrome/74.0.3729.131 Safari/537.36"",""on_chrome"":true,""on_mobile"":false,""language"":""en-US"",""screen_resolution"":[1440,900],""platform"":""MacIntel"",""timezone"":""Europe/Berlin""}","5","1754.9899999956601","","","1557927163827","16","","Schwangau","[]","Schwangau","true","false","2431.394999992335"
"","html-voicekey-response","65","380486","0.0-4.61-0.61","k9dywzt5kzz46dq","{""user_agent"":""Mozilla/5.0 (Macintosh; Intel Mac OS X 10_14_4) AppleWebKit/537.36 (KHTML, like Gecko) Chrome/74.0.3729.131 Safari/537.36"",""on_chrome"":true,""on_mobile"":false,""language"":""en-US"",""screen_resolution"":[1440,900],""platform"":""MacIntel"",""timezone"":""Europe/Berlin""}","5","1237.9149999995484","","","1557927166860","21","","Konstanz","[]","Konstanz","true","true","2296.6299999970943"
"","html-voicekey-response","66","383711","0.0-4.62-0.62","k9dywzt5kzz46dq","{""user_agent"":""Mozilla/5.0 (Macintosh; Intel Mac OS X 10_14_4) AppleWebKit/537.36 (KHTML, like Gecko) Chrome/74.0.3729.131 Safari/537.36"",""on_chrome"":true,""on_mobile"":false,""language"":""en-US"",""screen_resolution"":[1440,900],""platform"":""MacIntel"",""timezone"":""Europe/Berlin""}","5","1830.6800000080607","","","1557927169759","22","","Bamberg","[]","Bamberg","true","true","2622.914999999921"
"","html-voicekey-response","67","389927","0.0-4.63-0.63","k9dywzt5kzz46dq","{""user_agent"":""Mozilla/5.0 (Macintosh; Intel Mac OS X 10_14_4) AppleWebKit/537.36 (KHTML, like Gecko) Chrome/74.0.3729.131 Safari/537.36"",""on_chrome"":true,""on_mobile"":false,""language"":""en-US"",""screen_resolution"":[1440,900],""platform"":""MacIntel"",""timezone"":""Europe/Berlin""}","5","4955.400000000582","","","1557927172985","21","","Konstanz","[]","Konstanz","true","false","5612.809999991441"
"","html-voicekey-response","68","401668","0.0-4.64-0.64","k9dywzt5kzz46dq","{""user_agent"":""Mozilla/5.0 (Macintosh; Intel Mac OS X 10_14_4) AppleWebKit/537.36 (KHTML, like Gecko) Chrome/74.0.3729.131 Safari/537.36"",""on_chrome"":true,""on_mobile"":false,""language"":""en-US"",""screen_resolution"":[1440,900],""platform"":""MacIntel"",""timezone"":""Europe/Berlin""}","5","5373.804999990016","","","1557927179200","22","","","[]","Bamberg","false","false","7738.824999993085"
"","html-voicekey-response","69","404175","0.0-4.65-0.65","k9dywzt5kzz46dq","{""user_agent"":""Mozilla/5.0 (Macintosh; Intel Mac OS X 10_14_4) AppleWebKit/537.36 (KHTML, like Gecko) Chrome/74.0.3729.131 Safari/537.36"",""on_chrome"":true,""on_mobile"":false,""language"":""en-US"",""screen_resolution"":[1440,900],""platform"":""MacIntel"",""timezone"":""Europe/Berlin""}","5","1138.8650000097464","","","1557927190941","17","","Leipzig","[]","Leipzig","true","false","1905.2450000017416"
"","html-voicekey-response","70","407708","0.0-4.66-0.66","k9dywzt5kzz46dq","{""user_agent"":""Mozilla/5.0 (Macintosh; Intel Mac OS X 10_14_4) AppleWebKit/537.36 (KHTML, like Gecko) Chrome/74.0.3729.131 Safari/537.36"",""on_chrome"":true,""on_mobile"":false,""language"":""en-US"",""screen_resolution"":[1440,900],""platform"":""MacIntel"",""timezone"":""Europe/Berlin""}","5","1755.985000005085","","","1557927193448","18","","Forchheim","[]","Forchheim","true","false","2931.460000007064"
"","html-voicekey-response","71","410142","0.0-4.67-0.67","k9dywzt5kzz46dq","{""user_agent"":""Mozilla/5.0 (Macintosh; Intel Mac OS X 10_14_4) AppleWebKit/537.36 (KHTML, like Gecko) Chrome/74.0.3729.131 Safari/537.36"",""on_chrome"":true,""on_mobile"":false,""language"":""en-US"",""screen_resolution"":[1440,900],""platform"":""MacIntel"",""timezone"":""Europe/Berlin""}","5","1290.369999996829","","","1557927196981","15","","Nürnberg","[]","Nürnberg","true","false","1832.0300000050338"
"","html-voicekey-response","72","413311","0.0-4.68-0.68","k9dywzt5kzz46dq","{""user_agent"":""Mozilla/5.0 (Macintosh; Intel Mac OS X 10_14_4) AppleWebKit/537.36 (KHTML, like Gecko) Chrome/74.0.3729.131 Safari/537.36"",""on_chrome"":true,""on_mobile"":false,""language"":""en-US"",""screen_resolution"":[1440,900],""platform"":""MacIntel"",""timezone"":""Europe/Berlin""}","5","1821.7899999961724","","","1557927199415","19","","Frankfurt","[]","Frankfurt","true","false","2564.9300000077346"
"","html-voicekey-response","73","416065","0.0-4.69-0.69","k9dywzt5kzz46dq","{""user_agent"":""Mozilla/5.0 (Macintosh; Intel Mac OS X 10_14_4) AppleWebKit/537.36 (KHTML, like Gecko) Chrome/74.0.3729.131 Safari/537.36"",""on_chrome"":true,""on_mobile"":false,""language"":""en-US"",""screen_resolution"":[1440,900],""platform"":""MacIntel"",""timezone"":""Europe/Berlin""}","5","1228.3549999936718","","","1557927202584","23","","Stuttgart","[]","Stuttgart","true","true","2152.394999997341"
"","html-voicekey-response","74","418815","0.0-4.70-0.70","k9dywzt5kzz46dq","{""user_agent"":""Mozilla/5.0 (Macintosh; Intel Mac OS X 10_14_4) AppleWebKit/537.36 (KHTML, like Gecko) Chrome/74.0.3729.131 Safari/537.36"",""on_chrome"":true,""on_mobile"":false,""language"":""en-US"",""screen_resolution"":[1440,900],""platform"":""MacIntel"",""timezone"":""Europe/Berlin""}","5","1355.6049999986776","","","1557927205339","20","","Hamburg ","[]","Hamburg ","true","false","2148.155000002589"
"","html-voicekey-response","75","421798","0.0-4.71-0.71","k9dywzt5kzz46dq","{""user_agent"":""Mozilla/5.0 (Macintosh; Intel Mac OS X 10_14_4) AppleWebKit/537.36 (KHTML, like Gecko) Chrome/74.0.3729.131 Safari/537.36"",""on_chrome"":true,""on_mobile"":false,""language"":""en-US"",""screen_resolution"":[1440,900],""platform"":""MacIntel"",""timezone"":""Europe/Berlin""}","5","1290.3900000035997","","","1557927208088","23","","Stuttgart","[]","Stuttgart","true","false","2381.680000005872"
"","html-voicekey-response","76","424598","0.0-4.72-0.72","k9dywzt5kzz46dq","{""user_agent"":""Mozilla/5.0 (Macintosh; Intel Mac OS X 10_14_4) AppleWebKit/537.36 (KHTML, like Gecko) Chrome/74.0.3729.131 Safari/537.36"",""on_chrome"":true,""on_mobile"":false,""language"":""en-US"",""screen_resolution"":[1440,900],""platform"":""MacIntel"",""timezone"":""Europe/Berlin""}","5","989.0250000115251","","","1557927211072","24","","Köln","[]","Köln","true","true","2197.9100000025937"
"","html-voicekey-response","77","427907","0.0-4.73-0.73","k9dywzt5kzz46dq","{""user_agent"":""Mozilla/5.0 (Macintosh; Intel Mac OS X 10_14_4) AppleWebKit/537.36 (KHTML, like Gecko) Chrome/74.0.3729.131 Safari/537.36"",""on_chrome"":true,""on_mobile"":false,""language"":""en-US"",""screen_resolution"":[1440,900],""platform"":""MacIntel"",""timezone"":""Europe/Berlin""}","5","1080.2950000014157","","","1557927213872","25","","Osnabrück","[]","Osnabrück","true","true","2705.774999994901"
"","html-voicekey-response","78","430789","0.0-4.74-0.74","k9dywzt5kzz46dq","{""user_agent"":""Mozilla/5.0 (Macintosh; Intel Mac OS X 10_14_4) AppleWebKit/537.36 (KHTML, like Gecko) Chrome/74.0.3729.131 Safari/537.36"",""on_chrome"":true,""on_mobile"":false,""language"":""en-US"",""screen_resolution"":[1440,900],""platform"":""MacIntel"",""timezone"":""Europe/Berlin""}","5","1204.3550000033342","","","1557927217181","24","","Köln","[]","Köln","true","false","2279.819999996107"
"","html-voicekey-response","79","434890","0.0-4.75-0.75","k9dywzt5kzz46dq","{""user_agent"":""Mozilla/5.0 (Macintosh; Intel Mac OS X 10_14_4) AppleWebKit/537.36 (KHTML, like Gecko) Chrome/74.0.3729.131 Safari/537.36"",""on_chrome"":true,""on_mobile"":false,""language"":""en-US"",""screen_resolution"":[1440,900],""platform"":""MacIntel"",""timezone"":""Europe/Berlin""}","5","2622.7200000083308","","","1557927220063","25","","Osnabrück","[]","Osnabrück","true","false","3497.879999995348"
"","html-voicekey-response","80","446863","0.0-4.76-0.76","k9dywzt5kzz46dq","{""user_agent"":""Mozilla/5.0 (Macintosh; Intel Mac OS X 10_14_4) AppleWebKit/537.36 (KHTML, like Gecko) Chrome/74.0.3729.131 Safari/537.36"",""on_chrome"":true,""on_mobile"":false,""language"":""en-US"",""screen_resolution"":[1440,900],""platform"":""MacIntel"",""timezone"":""Europe/Berlin""}","5","4028.9149999969873","","","1557927224163","21","","","[]","Konstanz","false","false","7971.059999996214"
"","html-voicekey-response","81","457024","0.0-4.77-0.77","k9dywzt5kzz46dq","{""user_agent"":""Mozilla/5.0 (Macintosh; Intel Mac OS X 10_14_4) AppleWebKit/537.36 (KHTML, like Gecko) Chrome/74.0.3729.131 Safari/537.36"",""on_chrome"":true,""on_mobile"":false,""language"":""en-US"",""screen_resolution"":[1440,900],""platform"":""MacIntel"",""timezone"":""Europe/Berlin""}","5","5239.020000002556","","","1557927236136","22","","","[]","Bamberg","false","false","6158.869999999297"
"","html-voicekey-response","82","459914","0.0-4.78-0.78","k9dywzt5kzz46dq","{""user_agent"":""Mozilla/5.0 (Macintosh; Intel Mac OS X 10_14_4) AppleWebKit/537.36 (KHTML, like Gecko) Chrome/74.0.3729.131 Safari/537.36"",""on_chrome"":true,""on_mobile"":false,""language"":""en-US"",""screen_resolution"":[1440,900],""platform"":""MacIntel"",""timezone"":""Europe/Berlin""}","5","1389.869999993453","","","1557927246297","11","","Alfeld","[]","Alfeld","true","false","2288.799999994808"
"","html-voicekey-response","83","462248","0.0-4.79-0.79","k9dywzt5kzz46dq","{""user_agent"":""Mozilla/5.0 (Macintosh; Intel Mac OS X 10_14_4) AppleWebKit/537.36 (KHTML, like Gecko) Chrome/74.0.3729.131 Safari/537.36"",""on_chrome"":true,""on_mobile"":false,""language"":""en-US"",""screen_resolution"":[1440,900],""platform"":""MacIntel"",""timezone"":""Europe/Berlin""}","5","1157.2200000026264","","","1557927249187","2","","Berlin","[]","Berlin","true","false","1732.0599999948172"
"","html-voicekey-response","84","465480","0.0-4.80-0.80","k9dywzt5kzz46dq","{""user_agent"":""Mozilla/5.0 (Macintosh; Intel Mac OS X 10_14_4) AppleWebKit/537.36 (KHTML, like Gecko) Chrome/74.0.3729.131 Safari/537.36"",""on_chrome"":true,""on_mobile"":false,""language"":""en-US"",""screen_resolution"":[1440,900],""platform"":""MacIntel"",""timezone"":""Europe/Berlin""}","5","2073.094999994128","","","1557927251521","23","","Stuttgart","[]","Stuttgart","true","false","2631.134999988717"
"","html-voicekey-response","85","468632","0.0-4.81-0.81","k9dywzt5kzz46dq","{""user_agent"":""Mozilla/5.0 (Macintosh; Intel Mac OS X 10_14_4) AppleWebKit/537.36 (KHTML, like Gecko) Chrome/74.0.3729.131 Safari/537.36"",""on_chrome"":true,""on_mobile"":false,""language"":""en-US"",""screen_resolution"":[1440,900],""platform"":""MacIntel"",""timezone"":""Europe/Berlin""}","5","1573.3400000115857","","","1557927254753","15","","Nürnberg","[]","Nürnberg","true","false","2548.320000001695"
"","html-voicekey-response","86","471640","0.0-4.82-0.82","k9dywzt5kzz46dq","{""user_agent"":""Mozilla/5.0 (Macintosh; Intel Mac OS X 10_14_4) AppleWebKit/537.36 (KHTML, like Gecko) Chrome/74.0.3729.131 Safari/537.36"",""on_chrome"":true,""on_mobile"":false,""language"":""en-US"",""screen_resolution"":[1440,900],""platform"":""MacIntel"",""timezone"":""Europe/Berlin""}","5","1412.7900000110735","","","1557927257906","26","","Freiburg","[]","Freiburg","true","true","2405.46500000346"
"","html-voicekey-response","87","474639","0.0-4.83-0.83","k9dywzt5kzz46dq","{""user_agent"":""Mozilla/5.0 (Macintosh; Intel Mac OS X 10_14_4) AppleWebKit/537.36 (KHTML, like Gecko) Chrome/74.0.3729.131 Safari/537.36"",""on_chrome"":true,""on_mobile"":false,""language"":""en-US"",""screen_resolution"":[1440,900],""platform"":""MacIntel"",""timezone"":""Europe/Berlin""}","5","1504.2000000047033","","","1557927260914","24","","Köln","[]","Köln","true","false","2396.5250000037486"
"","html-voicekey-response","88","477656","0.0-4.84-0.84","k9dywzt5kzz46dq","{""user_agent"":""Mozilla/5.0 (Macintosh; Intel Mac OS X 10_14_4) AppleWebKit/537.36 (KHTML, like Gecko) Chrome/74.0.3729.131 Safari/537.36"",""on_chrome"":true,""on_mobile"":false,""language"":""en-US"",""screen_resolution"":[1440,900],""platform"":""MacIntel"",""timezone"":""Europe/Berlin""}","5","1539.6849999904866","","","1557927263912","26","","Freiburg","[]","Freiburg","true","false","2415.5749999918044"
"","html-voicekey-response","89","482746","0.0-4.85-0.85","k9dywzt5kzz46dq","{""user_agent"":""Mozilla/5.0 (Macintosh; Intel Mac OS X 10_14_4) AppleWebKit/537.36 (KHTML, like Gecko) Chrome/74.0.3729.131 Safari/537.36"",""on_chrome"":true,""on_mobile"":false,""language"":""en-US"",""screen_resolution"":[1440,900],""platform"":""MacIntel"",""timezone"":""Europe/Berlin""}","5","3388.779999988247","","","1557927266930","21","","Konstanz","[]","Konstanz","true","false","4487.314999991213"
"","html-voicekey-response","90","493880","0.0-4.86-0.86","k9dywzt5kzz46dq","{""user_agent"":""Mozilla/5.0 (Macintosh; Intel Mac OS X 10_14_4) AppleWebKit/537.36 (KHTML, like Gecko) Chrome/74.0.3729.131 Safari/537.36"",""on_chrome"":true,""on_mobile"":false,""language"":""en-US"",""screen_resolution"":[1440,900],""platform"":""MacIntel"",""timezone"":""Europe/Berlin""}","5","6339.165000006533","","","1557927272019","25","","","[]","Osnabrück","false","false","7131.9450000009965"
"","html-voicekey-response","91","496374","0.0-4.87-0.87","k9dywzt5kzz46dq","{""user_agent"":""Mozilla/5.0 (Macintosh; Intel Mac OS X 10_14_4) AppleWebKit/537.36 (KHTML, like Gecko) Chrome/74.0.3729.131 Safari/537.36"",""on_chrome"":true,""on_mobile"":false,""language"":""en-US"",""screen_resolution"":[1440,900],""platform"":""MacIntel"",""timezone"":""Europe/Berlin""}","5","1300.5799999899232","","","1557927283153","22","","Bamberg","[]","Bamberg","true","false","1891.7899999942165"
"","html-voicekey-response","92","508724","0.0-4.88-0.88","k9dywzt5kzz46dq","{""user_agent"":""Mozilla/5.0 (Macintosh; Intel Mac OS X 10_14_4) AppleWebKit/537.36 (KHTML, like Gecko) Chrome/74.0.3729.131 Safari/537.36"",""on_chrome"":true,""on_mobile"":false,""language"":""en-US"",""screen_resolution"":[1440,900],""platform"":""MacIntel"",""timezone"":""Europe/Berlin""}","5","7587.930000003171","","","1557927285648","3","","","[]","Ingolstadt","false","false","8347.064999994473"
"","html-voicekey-response","93","511684","0.0-4.89-0.89","k9dywzt5kzz46dq","{""user_agent"":""Mozilla/5.0 (Macintosh; Intel Mac OS X 10_14_4) AppleWebKit/537.36 (KHTML, like Gecko) Chrome/74.0.3729.131 Safari/537.36"",""on_chrome"":true,""on_mobile"":false,""language"":""en-US"",""screen_resolution"":[1440,900],""platform"":""MacIntel"",""timezone"":""Europe/Berlin""}","5","1630.9699999927311","","","1557927297998","1","","Magdeburg","[]","Magdeburg","true","false","2356.164999990142"
"","html-voicekey-response","94","517218","0.0-4.90-0.90","k9dywzt5kzz46dq","{""user_agent"":""Mozilla/5.0 (Macintosh; Intel Mac OS X 10_14_4) AppleWebKit/537.36 (KHTML, like Gecko) Chrome/74.0.3729.131 Safari/537.36"",""on_chrome"":true,""on_mobile"":false,""language"":""en-US"",""screen_resolution"":[1440,900],""platform"":""MacIntel"",""timezone"":""Europe/Berlin""}","5","4389.164999994891","","","1557927300957","21","","Konstanz","[]","Konstanz","true","false","4930.969999986701"
"","html-voicekey-response","95","519724","0.0-4.91-0.91","k9dywzt5kzz46dq","{""user_agent"":""Mozilla/5.0 (Macintosh; Intel Mac OS X 10_14_4) AppleWebKit/537.36 (KHTML, like Gecko) Chrome/74.0.3729.131 Safari/537.36"",""on_chrome"":true,""on_mobile"":false,""language"":""en-US"",""screen_resolution"":[1440,900],""platform"":""MacIntel"",""timezone"":""Europe/Berlin""}","5","1228.140000000922","","","1557927306491","6","","Dresden","[]","Dresden","true","false","1902.7599999972153"
"","html-voicekey-response","96","523173","0.0-4.92-0.92","k9dywzt5kzz46dq","{""user_agent"":""Mozilla/5.0 (Macintosh; Intel Mac OS X 10_14_4) AppleWebKit/537.36 (KHTML, like Gecko) Chrome/74.0.3729.131 Safari/537.36"",""on_chrome"":true,""on_mobile"":false,""language"":""en-US"",""screen_resolution"":[1440,900],""platform"":""MacIntel"",""timezone"":""Europe/Berlin""}","5","1657.1550000024495","","","1557927308997","4","","Würzburg","[]","Würzburg","true","false","2847.6400000072317"
"","html-voicekey-response","97","530274","0.0-4.93-0.93","k9dywzt5kzz46dq","{""user_agent"":""Mozilla/5.0 (Macintosh; Intel Mac OS X 10_14_4) AppleWebKit/537.36 (KHTML, like Gecko) Chrome/74.0.3729.131 Safari/537.36"",""on_chrome"":true,""on_mobile"":false,""language"":""en-US"",""screen_resolution"":[1440,900],""platform"":""MacIntel"",""timezone"":""Europe/Berlin""}","5","Infinity","","","1557927312447","26","","Freiburg","[]","Freiburg","true","false","6498.414999994566"
"","html-voicekey-response","98","534287","0.0-4.94-0.94","k9dywzt5kzz46dq","{""user_agent"":""Mozilla/5.0 (Macintosh; Intel Mac OS X 10_14_4) AppleWebKit/537.36 (KHTML, like Gecko) Chrome/74.0.3729.131 Safari/537.36"",""on_chrome"":true,""on_mobile"":false,""language"":""en-US"",""screen_resolution"":[1440,900],""platform"":""MacIntel"",""timezone"":""Europe/Berlin""}","5","1969.3199999981794","","","1557927319547","25","","Osnabrück","[]","Osnabrück","true","false","3411.274999991292"
"","html-voicekey-response","99","550920","0.0-4.95-0.95","k9dywzt5kzz46dq","{""user_agent"":""Mozilla/5.0 (Macintosh; Intel Mac OS X 10_14_4) AppleWebKit/537.36 (KHTML, like Gecko) Chrome/74.0.3729.131 Safari/537.36"",""on_chrome"":true,""on_mobile"":false,""language"":""en-US"",""screen_resolution"":[1440,900],""platform"":""MacIntel"",""timezone"":""Europe/Berlin""}","5","12088.254999989504","","","1557927323560","5","","","[]","Aachen","false","false","12630.064999990282"
"","html-voicekey-response","100","556564","0.0-4.96-0.96","k9dywzt5kzz46dq","{""user_agent"":""Mozilla/5.0 (Macintosh; Intel Mac OS X 10_14_4) AppleWebKit/537.36 (KHTML, like Gecko) Chrome/74.0.3729.131 Safari/537.36"",""on_chrome"":true,""on_mobile"":false,""language"":""en-US"",""screen_resolution"":[1440,900],""platform"":""MacIntel"",""timezone"":""Europe/Berlin""}","5","4196.859999990766","","","1557927340194","21","","Konstanz","[]","Konstanz","true","false","5040.4449999914505"
"","html-voicekey-response","101","559771","0.0-4.97-0.97","k9dywzt5kzz46dq","{""user_agent"":""Mozilla/5.0 (Macintosh; Intel Mac OS X 10_14_4) AppleWebKit/537.36 (KHTML, like Gecko) Chrome/74.0.3729.131 Safari/537.36"",""on_chrome"":true,""on_mobile"":false,""language"":""en-US"",""screen_resolution"":[1440,900],""platform"":""MacIntel"",""timezone"":""Europe/Berlin""}","5","1621.5150000005729","","","1557927345838","15","","Nürnberg","[]","Nürnberg","true","false","2604.3700000009267"
"","html-voicekey-response","102","567839","0.0-4.98-0.98","k9dywzt5kzz46dq","{""user_agent"":""Mozilla/5.0 (Macintosh; Intel Mac OS X 10_14_4) AppleWebKit/537.36 (KHTML, like Gecko) Chrome/74.0.3729.131 Safari/537.36"",""on_chrome"":true,""on_mobile"":false,""language"":""en-US"",""screen_resolution"":[1440,900],""platform"":""MacIntel"",""timezone"":""Europe/Berlin""}","5","6772.225000002281","","","1557927349045","7","","Erfurt","[]","Erfurt","true","false","7463.905000011437"
"","html-voicekey-response","103","570710","0.0-4.99-0.99","k9dywzt5kzz46dq","{""user_agent"":""Mozilla/5.0 (Macintosh; Intel Mac OS X 10_14_4) AppleWebKit/537.36 (KHTML, like Gecko) Chrome/74.0.3729.131 Safari/537.36"",""on_chrome"":true,""on_mobile"":false,""language"":""en-US"",""screen_resolution"":[1440,900],""platform"":""MacIntel"",""timezone"":""Europe/Berlin""}","5","1576.8000000042143","","","1557927357112","3","","Ingolstadt","[]","Ingolstadt","true","false","2269.29999999993"
"","html-voicekey-response","104","573410","0.0-4.100-0.100","k9dywzt5kzz46dq","{""user_agent"":""Mozilla/5.0 (Macintosh; Intel Mac OS X 10_14_4) AppleWebKit/537.36 (KHTML, like Gecko) Chrome/74.0.3729.131 Safari/537.36"",""on_chrome"":true,""on_mobile"":false,""language"":""en-US"",""screen_resolution"":[1440,900],""platform"":""MacIntel"",""timezone"":""Europe/Berlin""}","5","1455.9999999999768","","","1557927359983","26","","Freiburg","[]","Freiburg","true","false","2098.389999999199"
"","html-voicekey-response","105","576543","0.0-4.101-0.101","k9dywzt5kzz46dq","{""user_agent"":""Mozilla/5.0 (Macintosh; Intel Mac OS X 10_14_4) AppleWebKit/537.36 (KHTML, like Gecko) Chrome/74.0.3729.131 Safari/537.36"",""on_chrome"":true,""on_mobile"":false,""language"":""en-US"",""screen_resolution"":[1440,900],""platform"":""MacIntel"",""timezone"":""Europe/Berlin""}","5","1773.1149999979884","","","1557927362683","9","","München","[]","München","true","false","2531.2399999966146"
"","html-voicekey-response","106","595259","0.0-4.102-0.102","k9dywzt5kzz46dq","{""user_agent"":""Mozilla/5.0 (Macintosh; Intel Mac OS X 10_14_4) AppleWebKit/537.36 (KHTML, like Gecko) Chrome/74.0.3729.131 Safari/537.36"",""on_chrome"":true,""on_mobile"":false,""language"":""en-US"",""screen_resolution"":[1440,900],""platform"":""MacIntel"",""timezone"":""Europe/Berlin""}","5","13322.355000005546","","","1557927365817","10","","","[]","Heidelberg","false","false","14713.910000005853"
"","html-voicekey-response","107","597826","0.0-4.103-0.103","k9dywzt5kzz46dq","{""user_agent"":""Mozilla/5.0 (Macintosh; Intel Mac OS X 10_14_4) AppleWebKit/537.36 (KHTML, like Gecko) Chrome/74.0.3729.131 Safari/537.36"",""on_chrome"":true,""on_mobile"":false,""language"":""en-US"",""screen_resolution"":[1440,900],""platform"":""MacIntel"",""timezone"":""Europe/Berlin""}","5","1421.664999996056","","","1557927384533","22","","Bamberg","[]","Bamberg","true","false","1964.4600000028731"
"","html-voicekey-response","108","600760","0.0-4.104-0.104","k9dywzt5kzz46dq","{""user_agent"":""Mozilla/5.0 (Macintosh; Intel Mac OS X 10_14_4) AppleWebKit/537.36 (KHTML, like Gecko) Chrome/74.0.3729.131 Safari/537.36"",""on_chrome"":true,""on_mobile"":false,""language"":""en-US"",""screen_resolution"":[1440,900],""platform"":""MacIntel"",""timezone"":""Europe/Berlin""}","5","Infinity","","","1557927387100","21","","Konstanz","[]","Konstanz","true","false","2331.5050000092015"
"","html-voicekey-response","109","604033","0.0-4.105-0.105","k9dywzt5kzz46dq","{""user_agent"":""Mozilla/5.0 (Macintosh; Intel Mac OS X 10_14_4) AppleWebKit/537.36 (KHTML, like Gecko) Chrome/74.0.3729.131 Safari/537.36"",""on_chrome"":true,""on_mobile"":false,""language"":""en-US"",""screen_resolution"":[1440,900],""platform"":""MacIntel"",""timezone"":""Europe/Berlin""}","5","1378.0349999959349","","","1557927390034","11","","Alfeld","[]","Alfeld","true","false","2670.7399999868358"
"","html-voicekey-response","110","611417","0.0-4.106-0.106","k9dywzt5kzz46dq","{""user_agent"":""Mozilla/5.0 (Macintosh; Intel Mac OS X 10_14_4) AppleWebKit/537.36 (KHTML, like Gecko) Chrome/74.0.3729.131 Safari/537.36"",""on_chrome"":true,""on_mobile"":false,""language"":""en-US"",""screen_resolution"":[1440,900],""platform"":""MacIntel"",""timezone"":""Europe/Berlin""}","5","5871.659999998728","","","1557927393307","8","","Gotha","[]","Gotha","true","false","6780.415000001085"
"","html-voicekey-response","111","614306","0.0-4.107-0.107","k9dywzt5kzz46dq","{""user_agent"":""Mozilla/5.0 (Macintosh; Intel Mac OS X 10_14_4) AppleWebKit/537.36 (KHTML, like Gecko) Chrome/74.0.3729.131 Safari/537.36"",""on_chrome"":true,""on_mobile"":false,""language"":""en-US"",""screen_resolution"":[1440,900],""platform"":""MacIntel"",""timezone"":""Europe/Berlin""}","5","Infinity","","","1557927400690","21","","Konstanz","[]","Konstanz","true","false","2286.7200000036974"
"","html-voicekey-response","112","618839","0.0-4.108-0.108","k9dywzt5kzz46dq","{""user_agent"":""Mozilla/5.0 (Macintosh; Intel Mac OS X 10_14_4) AppleWebKit/537.36 (KHTML, like Gecko) Chrome/74.0.3729.131 Safari/537.36"",""on_chrome"":true,""on_mobile"":false,""language"":""en-US"",""screen_resolution"":[1440,900],""platform"":""MacIntel"",""timezone"":""Europe/Berlin""}","5","3357.1500000051224","","","1557927403579","14","","Potsdam","[]","Potsdam","true","false","3931.414999999106"
"","html-voicekey-response","113","622140","0.0-4.109-0.109","k9dywzt5kzz46dq","{""user_agent"":""Mozilla/5.0 (Macintosh; Intel Mac OS X 10_14_4) AppleWebKit/537.36 (KHTML, like Gecko) Chrome/74.0.3729.131 Safari/537.36"",""on_chrome"":true,""on_mobile"":false,""language"":""en-US"",""screen_resolution"":[1440,900],""platform"":""MacIntel"",""timezone"":""Europe/Berlin""}","5","2090.024999992084","","","1557927408112","25","","Osnabrück","[]","Osnabrück","true","false","2698.854999995092"
"","html-voicekey-response","114","625147","0.0-4.110-0.110","k9dywzt5kzz46dq","{""user_agent"":""Mozilla/5.0 (Macintosh; Intel Mac OS X 10_14_4) AppleWebKit/537.36 (KHTML, like Gecko) Chrome/74.0.3729.131 Safari/537.36"",""on_chrome"":true,""on_mobile"":false,""language"":""en-US"",""screen_resolution"":[1440,900],""platform"":""MacIntel"",""timezone"":""Europe/Berlin""}","5","1862.454999989341","","","1557927411414","12","","Dessau","[]","Dessau","true","false","2403.5799999983283"
"","html-voicekey-response","115","627764","0.0-4.111-0.111","k9dywzt5kzz46dq","{""user_agent"":""Mozilla/5.0 (Macintosh; Intel Mac OS X 10_14_4) AppleWebKit/537.36 (KHTML, like Gecko) Chrome/74.0.3729.131 Safari/537.36"",""on_chrome"":true,""on_mobile"":false,""language"":""en-US"",""screen_resolution"":[1440,900],""platform"":""MacIntel"",""timezone"":""Europe/Berlin""}","5","1305.8550000076416","","","1557927414421","21","","Konstanz","[]","Konstanz","true","false","2014.950000011595"
"","html-voicekey-response","116","630480","0.0-4.112-0.112","k9dywzt5kzz46dq","{""user_agent"":""Mozilla/5.0 (Macintosh; Intel Mac OS X 10_14_4) AppleWebKit/537.36 (KHTML, like Gecko) Chrome/74.0.3729.131 Safari/537.36"",""on_chrome"":true,""on_mobile"":false,""language"":""en-US"",""screen_resolution"":[1440,900],""platform"":""MacIntel"",""timezone"":""Europe/Berlin""}","5","1421.1100000046195","","","1557927417038","13","","Chemnitz","[]","Chemnitz","true","false","2113.134999992326"
"","html-voicekey-response","117","633432","0.0-4.113-0.113","k9dywzt5kzz46dq","{""user_agent"":""Mozilla/5.0 (Macintosh; Intel Mac OS X 10_14_4) AppleWebKit/537.36 (KHTML, like Gecko) Chrome/74.0.3729.131 Safari/537.36"",""on_chrome"":true,""on_mobile"":false,""language"":""en-US"",""screen_resolution"":[1440,900],""platform"":""MacIntel"",""timezone"":""Europe/Berlin""}","5","1671.4999999911292","","","1557927419754","5","","Aachen","[]","Aachen","true","false","2347.7399999974295"
"","html-voicekey-response","118","636287","0.0-4.114-0.114","k9dywzt5kzz46dq","{""user_agent"":""Mozilla/5.0 (Macintosh; Intel Mac OS X 10_14_4) AppleWebKit/537.36 (KHTML, like Gecko) Chrome/74.0.3729.131 Safari/537.36"",""on_chrome"":true,""on_mobile"":false,""language"":""en-US"",""screen_resolution"":[1440,900],""platform"":""MacIntel"",""timezone"":""Europe/Berlin""}","5","1676.384999993234","","","1557927422707","10","","Heidelberg","[]","Heidelberg","true","false","2250.949999986915"
"","html-voicekey-response","119","639204","0.0-4.115-0.115","k9dywzt5kzz46dq","{""user_agent"":""Mozilla/5.0 (Macintosh; Intel Mac OS X 10_14_4) AppleWebKit/537.36 (KHTML, like Gecko) Chrome/74.0.3729.131 Safari/537.36"",""on_chrome"":true,""on_mobile"":false,""language"":""en-US"",""screen_resolution"":[1440,900],""platform"":""MacIntel"",""timezone"":""Europe/Berlin""}","5","1488.8399999998278","","","1557927425561","27","","Tübingen","[]","Tübingen","true","true","2313.6649999942165"
"","html-voicekey-response","120","642904","0.0-4.116-0.116","k9dywzt5kzz46dq","{""user_agent"":""Mozilla/5.0 (Macintosh; Intel Mac OS X 10_14_4) AppleWebKit/537.36 (KHTML, like Gecko) Chrome/74.0.3729.131 Safari/537.36"",""on_chrome"":true,""on_mobile"":false,""language"":""en-US"",""screen_resolution"":[1440,900],""platform"":""MacIntel"",""timezone"":""Europe/Berlin""}","5","1955.7750000038418","","","1557927428477","28","","Regensburg","[]","Regensburg","true","true","3097.135000003618"
"","html-voicekey-response","121","645979","0.0-4.117-0.117","k9dywzt5kzz46dq","{""user_agent"":""Mozilla/5.0 (Macintosh; Intel Mac OS X 10_14_4) AppleWebKit/537.36 (KHTML, like Gecko) Chrome/74.0.3729.131 Safari/537.36"",""on_chrome"":true,""on_mobile"":false,""language"":""en-US"",""screen_resolution"":[1440,900],""platform"":""MacIntel"",""timezone"":""Europe/Berlin""}","5","1531.7100000045962","","","1557927432177","27","","Tübingen","[]","Tübingen","true","false","2472.4650000134716"
"","html-voicekey-response","122","648429","0.0-4.118-0.118","k9dywzt5kzz46dq","{""user_agent"":""Mozilla/5.0 (Macintosh; Intel Mac OS X 10_14_4) AppleWebKit/537.36 (KHTML, like Gecko) Chrome/74.0.3729.131 Safari/537.36"",""on_chrome"":true,""on_mobile"":false,""language"":""en-US"",""screen_resolution"":[1440,900],""platform"":""MacIntel"",""timezone"":""Europe/Berlin""}","5","1088.304999991879","","","1557927435253","28","","Regensburg","[]","Regensburg","true","false","1847.3200000007637"
"","html-voicekey-response","123","651112","0.0-4.119-0.119","k9dywzt5kzz46dq","{""user_agent"":""Mozilla/5.0 (Macintosh; Intel Mac OS X 10_14_4) AppleWebKit/537.36 (KHTML, like Gecko) Chrome/74.0.3729.131 Safari/537.36"",""on_chrome"":true,""on_mobile"":false,""language"":""en-US"",""screen_resolution"":[1440,900],""platform"":""MacIntel"",""timezone"":""Europe/Berlin""}","5","1455.0600000018953","","","1557927437703","21","","Konstanz","[]","Konstanz","true","false","2080.6500000035157"
"","html-voicekey-response","124","653913","0.0-4.120-0.120","k9dywzt5kzz46dq","{""user_agent"":""Mozilla/5.0 (Macintosh; Intel Mac OS X 10_14_4) AppleWebKit/537.36 (KHTML, like Gecko) Chrome/74.0.3729.131 Safari/537.36"",""on_chrome"":true,""on_mobile"":false,""language"":""en-US"",""screen_resolution"":[1440,900],""platform"":""MacIntel"",""timezone"":""Europe/Berlin""}","5","1603.800000006077","","","1557927440386","7","","Erfurt","[]","Erfurt","true","false","2196.4500000030966"
"","html-voicekey-response","125","656569","0.0-4.121-0.121","k9dywzt5kzz46dq","{""user_agent"":""Mozilla/5.0 (Macintosh; Intel Mac OS X 10_14_4) AppleWebKit/537.36 (KHTML, like Gecko) Chrome/74.0.3729.131 Safari/537.36"",""on_chrome"":true,""on_mobile"":false,""language"":""en-US"",""screen_resolution"":[1440,900],""platform"":""MacIntel"",""timezone"":""Europe/Berlin""}","5","1312.4700000133366","","","1557927443187","29","","Jena","[]","Jena","true","true","2053.445000012289"
"","html-voicekey-response","126","659369","0.0-4.122-0.122","k9dywzt5kzz46dq","{""user_agent"":""Mozilla/5.0 (Macintosh; Intel Mac OS X 10_14_4) AppleWebKit/537.36 (KHTML, like Gecko) Chrome/74.0.3729.131 Safari/537.36"",""on_chrome"":true,""on_mobile"":false,""language"":""en-US"",""screen_resolution"":[1440,900],""platform"":""MacIntel"",""timezone"":""Europe/Berlin""}","5","1237.9400000007358","","","1557927445844","30","","Bremen","[]","Bremen","true","true","2196.8349999951897"
"","html-voicekey-response","127","662502","0.0-4.123-0.123","k9dywzt5kzz46dq","{""user_agent"":""Mozilla/5.0 (Macintosh; Intel Mac OS X 10_14_4) AppleWebKit/537.36 (KHTML, like Gecko) Chrome/74.0.3729.131 Safari/537.36"",""on_chrome"":true,""on_mobile"":false,""language"":""en-US"",""screen_resolution"":[1440,900],""platform"":""MacIntel"",""timezone"":""Europe/Berlin""}","5","1905.944999985723","","","1557927448643","29","","Jena","[]","Jena","true","false","2530.4899999900954"
"","html-voicekey-response","128","665652","0.0-4.124-0.124","k9dywzt5kzz46dq","{""user_agent"":""Mozilla/5.0 (Macintosh; Intel Mac OS X 10_14_4) AppleWebKit/537.36 (KHTML, like Gecko) Chrome/74.0.3729.131 Safari/537.36"",""on_chrome"":true,""on_mobile"":false,""language"":""en-US"",""screen_resolution"":[1440,900],""platform"":""MacIntel"",""timezone"":""Europe/Berlin""}","5","1888.3949999961537","","","1557927451776","30","","Bremen","[]","Bremen","true","false","2547.135000000708"
"","html-voicekey-response","129","671429","0.0-4.125-0.125","k9dywzt5kzz46dq","{""user_agent"":""Mozilla/5.0 (Macintosh; Intel Mac OS X 10_14_4) AppleWebKit/537.36 (KHTML, like Gecko) Chrome/74.0.3729.131 Safari/537.36"",""on_chrome"":true,""on_mobile"":false,""language"":""en-US"",""screen_resolution"":[1440,900],""platform"":""MacIntel"",""timezone"":""Europe/Berlin""}","5","4513.784999997215","","","1557927454927","16","","Schwangau","[]","Schwangau","true","false","5173.259999995935"
"","html-voicekey-response","130","674412","0.0-4.126-0.126","k9dywzt5kzz46dq","{""user_agent"":""Mozilla/5.0 (Macintosh; Intel Mac OS X 10_14_4) AppleWebKit/537.36 (KHTML, like Gecko) Chrome/74.0.3729.131 Safari/537.36"",""on_chrome"":true,""on_mobile"":false,""language"":""en-US"",""screen_resolution"":[1440,900],""platform"":""MacIntel"",""timezone"":""Europe/Berlin""}","5","1737.6350000066218","","","1557927460703","23","","Stuttgart","[]","Stuttgart","true","false","2380.604999998468"
"","html-voicekey-response","131","676997","0.0-4.127-0.127","k9dywzt5kzz46dq","{""user_agent"":""Mozilla/5.0 (Macintosh; Intel Mac OS X 10_14_4) AppleWebKit/537.36 (KHTML, like Gecko) Chrome/74.0.3729.131 Safari/537.36"",""on_chrome"":true,""on_mobile"":false,""language"":""en-US"",""screen_resolution"":[1440,900],""platform"":""MacIntel"",""timezone"":""Europe/Berlin""}","5","1255.5499999960653","","","1557927463686","21","","Konstanz","[]","Konstanz","true","false","1980.6549999921117"
"","html-voicekey-response","132","679935","0.0-4.128-0.128","k9dywzt5kzz46dq","{""user_agent"":""Mozilla/5.0 (Macintosh; Intel Mac OS X 10_14_4) AppleWebKit/537.36 (KHTML, like Gecko) Chrome/74.0.3729.131 Safari/537.36"",""on_chrome"":true,""on_mobile"":false,""language"":""en-US"",""screen_resolution"":[1440,900],""platform"":""MacIntel"",""timezone"":""Europe/Berlin""}","5","1610.2499999922934","","","1557927466271","17","","Leipzig","[]","Leipzig","true","false","2334.994999997434"
"","html-voicekey-response","133","682686","0.0-4.129-0.129","k9dywzt5kzz46dq","{""user_agent"":""Mozilla/5.0 (Macintosh; Intel Mac OS X 10_14_4) AppleWebKit/537.36 (KHTML, like Gecko) Chrome/74.0.3729.131 Safari/537.36"",""on_chrome"":true,""on_mobile"":false,""language"":""en-US"",""screen_resolution"":[1440,900],""platform"":""MacIntel"",""timezone"":""Europe/Berlin""}","5","1455.9549999920187","","","1557927469209","19","","Frankfurt","[]","Frankfurt","true","false","2148.204999990412"
"","html-voicekey-response","134","691268","0.0-4.130-0.130","k9dywzt5kzz46dq","{""user_agent"":""Mozilla/5.0 (Macintosh; Intel Mac OS X 10_14_4) AppleWebKit/537.36 (KHTML, like Gecko) Chrome/74.0.3729.131 Safari/537.36"",""on_chrome"":true,""on_mobile"":false,""language"":""en-US"",""screen_resolution"":[1440,900],""platform"":""MacIntel"",""timezone"":""Europe/Berlin""}","5","3770.924999998743","","","1557927471960","18","","","[]","Forchheim","false","false","4579.865000006976"
"","html-voicekey-response","135","694143","0.0-4.131-0.131","k9dywzt5kzz46dq","{""user_agent"":""Mozilla/5.0 (Macintosh; Intel Mac OS X 10_14_4) AppleWebKit/537.36 (KHTML, like Gecko) Chrome/74.0.3729.131 Safari/537.36"",""on_chrome"":true,""on_mobile"":false,""language"":""en-US"",""screen_resolution"":[1440,900],""platform"":""MacIntel"",""timezone"":""Europe/Berlin""}","5","1728.719999993546","","","1557927480543","27","","Tübingen","[]","Tübingen","true","false","2271.259999994072"
"","html-voicekey-response","136","710575","0.0-4.132-0.132","k9dywzt5kzz46dq","{""user_agent"":""Mozilla/5.0 (Macintosh; Intel Mac OS X 10_14_4) AppleWebKit/537.36 (KHTML, like Gecko) Chrome/74.0.3729.131 Safari/537.36"",""on_chrome"":true,""on_mobile"":false,""language"":""en-US"",""screen_resolution"":[1440,900],""platform"":""MacIntel"",""timezone"":""Europe/Berlin""}","5","10954.019999999064","","","1557927483417","28","","","[]","Regensburg","false","false","12429.019999995944"
"","html-voicekey-response","137","714756","0.0-4.133-0.133","k9dywzt5kzz46dq","{""user_agent"":""Mozilla/5.0 (Macintosh; Intel Mac OS X 10_14_4) AppleWebKit/537.36 (KHTML, like Gecko) Chrome/74.0.3729.131 Safari/537.36"",""on_chrome"":true,""on_mobile"":false,""language"":""en-US"",""screen_resolution"":[1440,900],""platform"":""MacIntel"",""timezone"":""Europe/Berlin""}","5","2969.309999994794","","","1557927499849","29","","Jena","[]","Jena","true","false","3578.445000006468"
"","html-voicekey-response","138","719214","0.0-4.134-0.134","k9dywzt5kzz46dq","{""user_agent"":""Mozilla/5.0 (Macintosh; Intel Mac OS X 10_14_4) AppleWebKit/537.36 (KHTML, like Gecko) Chrome/74.0.3729.131 Safari/537.36"",""on_chrome"":true,""on_mobile"":false,""language"":""en-US"",""screen_resolution"":[1440,900],""platform"":""MacIntel"",""timezone"":""Europe/Berlin""}","5","3270.2700000025566","","","1557927504030","30","","Bremen","[]","Bremen","true","false","3855.374999999185"
"","html-voicekey-response","139","721797","0.0-4.135-0.135","k9dywzt5kzz46dq","{""user_agent"":""Mozilla/5.0 (Macintosh; Intel Mac OS X 10_14_4) AppleWebKit/537.36 (KHTML, like Gecko) Chrome/74.0.3729.131 Safari/537.36"",""on_chrome"":true,""on_mobile"":false,""language"":""en-US"",""screen_resolution"":[1440,900],""platform"":""MacIntel"",""timezone"":""Europe/Berlin""}","5","1270.1200000099839","","","1557927508489","21","","Konstanz","[]","Konstanz","true","false","1979.70000001078"
"","html-voicekey-response","140","724430","0.0-4.136-0.136","k9dywzt5kzz46dq","{""user_agent"":""Mozilla/5.0 (Macintosh; Intel Mac OS X 10_14_4) AppleWebKit/537.36 (KHTML, like Gecko) Chrome/74.0.3729.131 Safari/537.36"",""on_chrome"":true,""on_mobile"":false,""language"":""en-US"",""screen_resolution"":[1440,900],""platform"":""MacIntel"",""timezone"":""Europe/Berlin""}","5","1336.8399999979652","","","1557927511072","8","","Gotha","[]","Gotha","true","false","2029.7300000092946"
"","html-voicekey-response","141","727747","0.0-4.137-0.137","k9dywzt5kzz46dq","{""user_agent"":""Mozilla/5.0 (Macintosh; Intel Mac OS X 10_14_4) AppleWebKit/537.36 (KHTML, like Gecko) Chrome/74.0.3729.131 Safari/537.36"",""on_chrome"":true,""on_mobile"":false,""language"":""en-US"",""screen_resolution"":[1440,900],""platform"":""MacIntel"",""timezone"":""Europe/Berlin""}","5","2088.015000010119","","","1557927513705","3","","Ingolstadt","[]","Ingolstadt","true","false","2713.774999996531"
"","html-voicekey-response","142","732498","0.0-4.138-0.138","k9dywzt5kzz46dq","{""user_agent"":""Mozilla/5.0 (Macintosh; Intel Mac OS X 10_14_4) AppleWebKit/537.36 (KHTML, like Gecko) Chrome/74.0.3729.131 Safari/537.36"",""on_chrome"":true,""on_mobile"":false,""language"":""en-US"",""screen_resolution"":[1440,900],""platform"":""MacIntel"",""timezone"":""Europe/Berlin""}","5","3586.7400000077673","","","1557927517022","14","","Potsdam","[]","Potsdam","true","false","4146.049999995739"
"","html-voicekey-response","143","736073","0.0-4.139-0.139","k9dywzt5kzz46dq","{""user_agent"":""Mozilla/5.0 (Macintosh; Intel Mac OS X 10_14_4) AppleWebKit/537.36 (KHTML, like Gecko) Chrome/74.0.3729.131 Safari/537.36"",""on_chrome"":true,""on_mobile"":false,""language"":""en-US"",""screen_resolution"":[1440,900],""platform"":""MacIntel"",""timezone"":""Europe/Berlin""}","5","2429.9400000107476","","","1557927521772","20","","Hamburg ","[]","Hamburg ","true","false","2972.269999998389"
"","html-voicekey-response","144","739040","0.0-4.140-0.140","k9dywzt5kzz46dq","{""user_agent"":""Mozilla/5.0 (Macintosh; Intel Mac OS X 10_14_4) AppleWebKit/537.36 (KHTML, like Gecko) Chrome/74.0.3729.131 Safari/537.36"",""on_chrome"":true,""on_mobile"":false,""language"":""en-US"",""screen_resolution"":[1440,900],""platform"":""MacIntel"",""timezone"":""Europe/Berlin""}","5","1722.8950000079117","","","1557927525347","28","","Regensburg","[]","Regensburg","true","false","2363.729999997304"
"","html-voicekey-response","145","741423","0.0-4.141-0.141","k9dywzt5kzz46dq","{""user_agent"":""Mozilla/5.0 (Macintosh; Intel Mac OS X 10_14_4) AppleWebKit/537.36 (KHTML, like Gecko) Chrome/74.0.3729.131 Safari/537.36"",""on_chrome"":true,""on_mobile"":false,""language"":""en-US"",""screen_resolution"":[1440,900],""platform"":""MacIntel"",""timezone"":""Europe/Berlin""}","5","1254.7299999949523","","","1557927528315","24","","Köln","[]","Köln","true","false","1779.034999999567"
"","html-voicekey-response","146","744192","0.0-4.142-0.142","k9dywzt5kzz46dq","{""user_agent"":""Mozilla/5.0 (Macintosh; Intel Mac OS X 10_14_4) AppleWebKit/537.36 (KHTML, like Gecko) Chrome/74.0.3729.131 Safari/537.36"",""on_chrome"":true,""on_mobile"":false,""language"":""en-US"",""screen_resolution"":[1440,900],""platform"":""MacIntel"",""timezone"":""Europe/Berlin""}","5","1589.010000004992","","","1557927530698","16","","Schwangau","[]","Schwangau","true","false","2164.199999999255"
"","html-voicekey-response","147","746765","0.0-4.143-0.143","k9dywzt5kzz46dq","{""user_agent"":""Mozilla/5.0 (Macintosh; Intel Mac OS X 10_14_4) AppleWebKit/537.36 (KHTML, like Gecko) Chrome/74.0.3729.131 Safari/537.36"",""on_chrome"":true,""on_mobile"":false,""language"":""en-US"",""screen_resolution"":[1440,900],""platform"":""MacIntel"",""timezone"":""Europe/Berlin""}","5","1445.2350000008942","","","1557927533466","29","","Jena","[]","Jena","true","false","1969.5099999953527"
"","html-voicekey-response","148","749965","0.0-4.144-0.144","k9dywzt5kzz46dq","{""user_agent"":""Mozilla/5.0 (Macintosh; Intel Mac OS X 10_14_4) AppleWebKit/537.36 (KHTML, like Gecko) Chrome/74.0.3729.131 Safari/537.36"",""on_chrome"":true,""on_mobile"":false,""language"":""en-US"",""screen_resolution"":[1440,900],""platform"":""MacIntel"",""timezone"":""Europe/Berlin""}","5","1988.884999993234","","","1557927536039","30","","Bremen","[]","Bremen","true","false","2596.9049999985145"
"","html-voicekey-response","149","753748","0.0-4.145-0.145","k9dywzt5kzz46dq","{""user_agent"":""Mozilla/5.0 (Macintosh; Intel Mac OS X 10_14_4) AppleWebKit/537.36 (KHTML, like Gecko) Chrome/74.0.3729.131 Safari/537.36"",""on_chrome"":true,""on_mobile"":false,""language"":""en-US"",""screen_resolution"":[1440,900],""platform"":""MacIntel"",""timezone"":""Europe/Berlin""}","5","2437.740000002878","","","1557927539240","10","","Heidelberg","[]","Heidelberg","true","false","3180.189999999129"
"","html-voicekey-response","150","756805","0.0-4.146-0.146","k9dywzt5kzz46dq","{""user_agent"":""Mozilla/5.0 (Macintosh; Intel Mac OS X 10_14_4) AppleWebKit/537.36 (KHTML, like Gecko) Chrome/74.0.3729.131 Safari/537.36"",""on_chrome"":true,""on_mobile"":false,""language"":""en-US"",""screen_resolution"":[1440,900],""platform"":""MacIntel"",""timezone"":""Europe/Berlin""}","5","1627.5399999957067","","","1557927543023","11","","Alfeld","[]","Alfeld","true","false","2453.4549999953015"
"","html-voicekey-response","151","761954","0.0-4.147-0.147","k9dywzt5kzz46dq","{""user_agent"":""Mozilla/5.0 (Macintosh; Intel Mac OS X 10_14_4) AppleWebKit/537.36 (KHTML, like Gecko) Chrome/74.0.3729.131 Safari/537.36"",""on_chrome"":true,""on_mobile"":false,""language"":""en-US"",""screen_resolution"":[1440,900],""platform"":""MacIntel"",""timezone"":""Europe/Berlin""}","5","4021.5899999983144","","","1557927546079","26","","Freiburg","[]","Freiburg","true","false","4546.625000002678"
"","html-voicekey-response","152","766705","0.0-4.148-0.148","k9dywzt5kzz46dq","{""user_agent"":""Mozilla/5.0 (Macintosh; Intel Mac OS X 10_14_4) AppleWebKit/537.36 (KHTML, like Gecko) Chrome/74.0.3729.131 Safari/537.36"",""on_chrome"":true,""on_mobile"":false,""language"":""en-US"",""screen_resolution"":[1440,900],""platform"":""MacIntel"",""timezone"":""Europe/Berlin""}","5","3337.999999997765","","","1557927551229","18","","Forchheim","[]","Forchheim","true","false","4145.5799999966985"
"","html-voicekey-response","153","769865","0.0-4.149-0.149","k9dywzt5kzz46dq","{""user_agent"":""Mozilla/5.0 (Macintosh; Intel Mac OS X 10_14_4) AppleWebKit/537.36 (KHTML, like Gecko) Chrome/74.0.3729.131 Safari/537.36"",""on_chrome"":true,""on_mobile"":false,""language"":""en-US"",""screen_resolution"":[1440,900],""platform"":""MacIntel"",""timezone"":""Europe/Berlin""}","5","1796.0149999942864","","","1557927555980","15","","Nürnberg","[]","Nürnberg","true","false","2556.3750000001164"
"","html-voicekey-response","154","772481","0.0-4.150-0.150","k9dywzt5kzz46dq","{""user_agent"":""Mozilla/5.0 (Macintosh; Intel Mac OS X 10_14_4) AppleWebKit/537.36 (KHTML, like Gecko) Chrome/74.0.3729.131 Safari/537.36"",""on_chrome"":true,""on_mobile"":false,""language"":""en-US"",""screen_resolution"":[1440,900],""platform"":""MacIntel"",""timezone"":""Europe/Berlin""}","5","1387.204999986198","","","1557927559139","7","","Erfurt","[]","Erfurt","true","false","2011.8449999863515"
"","html-voicekey-response","155","775364","0.0-4.151-0.151","k9dywzt5kzz46dq","{""user_agent"":""Mozilla/5.0 (Macintosh; Intel Mac OS X 10_14_4) AppleWebKit/537.36 (KHTML, like Gecko) Chrome/74.0.3729.131 Safari/537.36"",""on_chrome"":true,""on_mobile"":false,""language"":""en-US"",""screen_resolution"":[1440,900],""platform"":""MacIntel"",""timezone"":""Europe/Berlin""}","5","1654.1150000064868","","","1557927561756","25","","Osnabrück","[]","Osnabrück","true","false","2279.7600000048988"
"","html-voicekey-response","156","779499","0.0-4.152-0.152","k9dywzt5kzz46dq","{""user_agent"":""Mozilla/5.0 (Macintosh; Intel Mac OS X 10_14_4) AppleWebKit/537.36 (KHTML, like Gecko) Chrome/74.0.3729.131 Safari/537.36"",""on_chrome"":true,""on_mobile"":false,""language"":""en-US"",""screen_resolution"":[1440,900],""platform"":""MacIntel"",""timezone"":""Europe/Berlin""}","5","2887.8499999935507","","","1557927564639","21","","Konstanz","[]","Konstanz","true","false","3530.0250000000233"
"","html-voicekey-response","157","782303","0.0-4.153-0.153","k9dywzt5kzz46dq","{""user_agent"":""Mozilla/5.0 (Macintosh; Intel Mac OS X 10_14_4) AppleWebKit/537.36 (KHTML, like Gecko) Chrome/74.0.3729.131 Safari/537.36"",""on_chrome"":true,""on_mobile"":false,""language"":""en-US"",""screen_resolution"":[1440,900],""platform"":""MacIntel"",""timezone"":""Europe/Berlin""}","5","1492.7350000014762","","","1557927568774","26","","Freiburg","[]","Freiburg","true","false","2200.090000013006"
"","html-voicekey-response","158","785521","0.0-4.154-0.154","k9dywzt5kzz46dq","{""user_agent"":""Mozilla/5.0 (Macintosh; Intel Mac OS X 10_14_4) AppleWebKit/537.36 (KHTML, like Gecko) Chrome/74.0.3729.131 Safari/537.36"",""on_chrome"":true,""on_mobile"":false,""language"":""en-US"",""screen_resolution"":[1440,900],""platform"":""MacIntel"",""timezone"":""Europe/Berlin""}","5","1471.5000000085915","","","1557927571578","22","","Bamberg","[]","Bamberg","true","false","2613.905000005616"
"","html-voicekey-response","159","790371","0.0-4.155-0.155","k9dywzt5kzz46dq","{""user_agent"":""Mozilla/5.0 (Macintosh; Intel Mac OS X 10_14_4) AppleWebKit/537.36 (KHTML, like Gecko) Chrome/74.0.3729.131 Safari/537.36"",""on_chrome"":true,""on_mobile"":false,""language"":""en-US"",""screen_resolution"":[1440,900],""platform"":""MacIntel"",""timezone"":""Europe/Berlin""}","5","3753.42000000258","","","1557927574795","14","","Potsdam","[]","Potsdam","true","false","4245.760000005248"
"","html-voicekey-response","160","797430","0.0-4.156-0.156","k9dywzt5kzz46dq","{""user_agent"":""Mozilla/5.0 (Macintosh; Intel Mac OS X 10_14_4) AppleWebKit/537.36 (KHTML, like Gecko) Chrome/74.0.3729.131 Safari/537.36"",""on_chrome"":true,""on_mobile"":false,""language"":""en-US"",""screen_resolution"":[1440,900],""platform"":""MacIntel"",""timezone"":""Europe/Berlin""}","5","5863.655000002682","","","1557927579646","18","","Forchheim","[]","Forchheim","true","false","6455.035000006319"
"","html-voicekey-response","161","799946","0.0-4.157-0.157","k9dywzt5kzz46dq","{""user_agent"":""Mozilla/5.0 (Macintosh; Intel Mac OS X 10_14_4) AppleWebKit/537.36 (KHTML, like Gecko) Chrome/74.0.3729.131 Safari/537.36"",""on_chrome"":true,""on_mobile"":false,""language"":""en-US"",""screen_resolution"":[1440,900],""platform"":""MacIntel"",""timezone"":""Europe/Berlin""}","5","1254.3099999982865","","","1557927586704","8","","Gotha","[]","Gotha","true","false","1912.4299999966752"
"","html-voicekey-response","162","803267","0.0-4.158-0.158","k9dywzt5kzz46dq","{""user_agent"":""Mozilla/5.0 (Macintosh; Intel Mac OS X 10_14_4) AppleWebKit/537.36 (KHTML, like Gecko) Chrome/74.0.3729.131 Safari/537.36"",""on_chrome"":true,""on_mobile"":false,""language"":""en-US"",""screen_resolution"":[1440,900],""platform"":""MacIntel"",""timezone"":""Europe/Berlin""}","5","1986.845000001113","","","1557927589221","10","","Heidelberg","[]","Heidelberg","true","false","2717.0699999987846"
"","html-voicekey-response","163","805718","0.0-4.159-0.159","k9dywzt5kzz46dq","{""user_agent"":""Mozilla/5.0 (Macintosh; Intel Mac OS X 10_14_4) AppleWebKit/537.36 (KHTML, like Gecko) Chrome/74.0.3729.131 Safari/537.36"",""on_chrome"":true,""on_mobile"":false,""language"":""en-US"",""screen_resolution"":[1440,900],""platform"":""MacIntel"",""timezone"":""Europe/Berlin""}","5","1204.999999996135","","","1557927592541","30","","Bremen","[]","Bremen","true","false","1847.5749999925029"
"","html-voicekey-response","164","808784","0.0-4.160-0.160","k9dywzt5kzz46dq","{""user_agent"":""Mozilla/5.0 (Macintosh; Intel Mac OS X 10_14_4) AppleWebKit/537.36 (KHTML, like Gecko) Chrome/74.0.3729.131 Safari/537.36"",""on_chrome"":true,""on_mobile"":false,""language"":""en-US"",""screen_resolution"":[1440,900],""platform"":""MacIntel"",""timezone"":""Europe/Berlin""}","5","1570.3850000080188","","","1557927594993","21","","Konstanz","[]","Konstanz","true","false","2462.4500000063563"
"","html-voicekey-response","165","811368","0.0-4.161-0.161","k9dywzt5kzz46dq","{""user_agent"":""Mozilla/5.0 (Macintosh; Intel Mac OS X 10_14_4) AppleWebKit/537.36 (KHTML, like Gecko) Chrome/74.0.3729.131 Safari/537.36"",""on_chrome"":true,""on_mobile"":false,""language"":""en-US"",""screen_resolution"":[1440,900],""platform"":""MacIntel"",""timezone"":""Europe/Berlin""}","5","1387.9199999881444","","","1557927598058","27","","Tübingen","[]","Tübingen","true","false","1979.684999998426"
"","html-voicekey-response","166","813891","0.0-4.162-0.162","k9dywzt5kzz46dq","{""user_agent"":""Mozilla/5.0 (Macintosh; Intel Mac OS X 10_14_4) AppleWebKit/537.36 (KHTML, like Gecko) Chrome/74.0.3729.131 Safari/537.36"",""on_chrome"":true,""on_mobile"":false,""language"":""en-US"",""screen_resolution"":[1440,900],""platform"":""MacIntel"",""timezone"":""Europe/Berlin""}","5","1311.5849999974948","","","1557927600642","16","","Schwangau","[]","Schwangau","true","false","1919.6850000007544"
"","html-voicekey-response","167","816673","0.0-4.163-0.163","k9dywzt5kzz46dq","{""user_agent"":""Mozilla/5.0 (Macintosh; Intel Mac OS X 10_14_4) AppleWebKit/537.36 (KHTML, like Gecko) Chrome/74.0.3729.131 Safari/537.36"",""on_chrome"":true,""on_mobile"":false,""language"":""en-US"",""screen_resolution"":[1440,900],""platform"":""MacIntel"",""timezone"":""Europe/Berlin""}","5","1687.3950000097743","","","1557927603166","28","","Regensburg","[]","Regensburg","true","false","2179.280000011204"
"","html-voicekey-response","168","818924","0.0-4.164-0.164","k9dywzt5kzz46dq","{""user_agent"":""Mozilla/5.0 (Macintosh; Intel Mac OS X 10_14_4) AppleWebKit/537.36 (KHTML, like Gecko) Chrome/74.0.3729.131 Safari/537.36"",""on_chrome"":true,""on_mobile"":false,""language"":""en-US"",""screen_resolution"":[1440,900],""platform"":""MacIntel"",""timezone"":""Europe/Berlin""}","5","1253.6150000031107","","","1557927605949","29","","Jena","[]","Jena","true","false","1646.825000003446"
"","html-voicekey-response","169","821174","0.0-4.165-0.165","k9dywzt5kzz46dq","{""user_agent"":""Mozilla/5.0 (Macintosh; Intel Mac OS X 10_14_4) AppleWebKit/537.36 (KHTML, like Gecko) Chrome/74.0.3729.131 Safari/537.36"",""on_chrome"":true,""on_mobile"":false,""language"":""en-US"",""screen_resolution"":[1440,900],""platform"":""MacIntel"",""timezone"":""Europe/Berlin""}","5","1187.2300000048476","","","1557927608199","6","","Dresden","[]","Dresden","true","false","1646.245000010822"
"","html-voicekey-response","170","826047","0.0-4.166-0.166","k9dywzt5kzz46dq","{""user_agent"":""Mozilla/5.0 (Macintosh; Intel Mac OS X 10_14_4) AppleWebKit/537.36 (KHTML, like Gecko) Chrome/74.0.3729.131 Safari/537.36"",""on_chrome"":true,""on_mobile"":false,""language"":""en-US"",""screen_resolution"":[1440,900],""platform"":""MacIntel"",""timezone"":""Europe/Berlin""}","5","3811.4299999959535","","","1557927610449","26","","Freiburg","[]","Freiburg","true","false","4269.729999999981"
"","html-voicekey-response","171","829947","0.0-4.167-0.167","k9dywzt5kzz46dq","{""user_agent"":""Mozilla/5.0 (Macintosh; Intel Mac OS X 10_14_4) AppleWebKit/537.36 (KHTML, like Gecko) Chrome/74.0.3729.131 Safari/537.36"",""on_chrome"":true,""on_mobile"":false,""language"":""en-US"",""screen_resolution"":[1440,900],""platform"":""MacIntel"",""timezone"":""Europe/Berlin""}","5","2852.695000003069","","","1557927615323","3","","Ingolstadt","[]","Ingolstadt","true","false","3295.4549999994924"
"","html-voicekey-response","172","832981","0.0-4.168-0.168","k9dywzt5kzz46dq","{""user_agent"":""Mozilla/5.0 (Macintosh; Intel Mac OS X 10_14_4) AppleWebKit/537.36 (KHTML, like Gecko) Chrome/74.0.3729.131 Safari/537.36"",""on_chrome"":true,""on_mobile"":false,""language"":""en-US"",""screen_resolution"":[1440,900],""platform"":""MacIntel"",""timezone"":""Europe/Berlin""}","5","1786.755000002659","","","1557927619223","18","","Forchheim","[]","Forchheim","true","false","2428.6449999926845"
"","html-voicekey-response","173","837388","0.0-4.169-0.169","k9dywzt5kzz46dq","{""user_agent"":""Mozilla/5.0 (Macintosh; Intel Mac OS X 10_14_4) AppleWebKit/537.36 (KHTML, like Gecko) Chrome/74.0.3729.131 Safari/537.36"",""on_chrome"":true,""on_mobile"":false,""language"":""en-US"",""screen_resolution"":[1440,900],""platform"":""MacIntel"",""timezone"":""Europe/Berlin""}","5","3327.5850000007545","","","1557927622256","26","","Freiburg","[]","Freiburg","true","false","3802.7299999957904"
"","html-voicekey-response","174","839804","0.0-4.170-0.170","k9dywzt5kzz46dq","{""user_agent"":""Mozilla/5.0 (Macintosh; Intel Mac OS X 10_14_4) AppleWebKit/537.36 (KHTML, like Gecko) Chrome/74.0.3729.131 Safari/537.36"",""on_chrome"":true,""on_mobile"":false,""language"":""en-US"",""screen_resolution"":[1440,900],""platform"":""MacIntel"",""timezone"":""Europe/Berlin""}","5","1287.044999998971","","","1557927626663","5","","Aachen","[]","Aachen","true","false","1812.1050000045216"
"","html-voicekey-response","175","842037","0.0-4.171-0.171","k9dywzt5kzz46dq","{""user_agent"":""Mozilla/5.0 (Macintosh; Intel Mac OS X 10_14_4) AppleWebKit/537.36 (KHTML, like Gecko) Chrome/74.0.3729.131 Safari/537.36"",""on_chrome"":true,""on_mobile"":false,""language"":""en-US"",""screen_resolution"":[1440,900],""platform"":""MacIntel"",""timezone"":""Europe/Berlin""}","5","1087.999999997765","","","1557927629079","2","","Berlin","[]","Berlin","true","false","1629.9350000044797"
"","html-voicekey-response","176","844829","0.0-4.172-0.172","k9dywzt5kzz46dq","{""user_agent"":""Mozilla/5.0 (Macintosh; Intel Mac OS X 10_14_4) AppleWebKit/537.36 (KHTML, like Gecko) Chrome/74.0.3729.131 Safari/537.36"",""on_chrome"":true,""on_mobile"":false,""language"":""en-US"",""screen_resolution"":[1440,900],""platform"":""MacIntel"",""timezone"":""Europe/Berlin""}","5","1570.7300000011223","","","1557927631313","25","","Osnabrück","[]","Osnabrück","true","false","2187.5049999944167"
