"value","trial_type","trial_index","time_elapsed","internal_node_id","subject","browser_info","participant_number","rt","responses","view_history","presentation_start_time","id","text","response","keypresses","answer","correct","study","experimenter_rt"
"","call-function","0","3","0.0-0.0","nk6aqkf3bjlan4c","{""user_agent"":""Mozilla/5.0 (Macintosh; Intel Mac OS X 10_14_4) AppleWebKit/537.36 (KHTML, like Gecko) Chrome/74.0.3729.131 Safari/537.36"",""on_chrome"":true,""on_mobile"":false,""language"":""en-US"",""screen_resolution"":[1440,900],""platform"":""MacIntel"",""timezone"":""Europe/Berlin""}","6","","","","","","","","","","","",""
"","survey-text","1","19883","0.0-1.0","nk6aqkf3bjlan4c","{""user_agent"":""Mozilla/5.0 (Macintosh; Intel Mac OS X 10_14_4) AppleWebKit/537.36 (KHTML, like Gecko) Chrome/74.0.3729.131 Safari/537.36"",""on_chrome"":true,""on_mobile"":false,""language"":""en-US"",""screen_resolution"":[1440,900],""platform"":""MacIntel"",""timezone"":""Europe/Berlin""}","6","19879","{""Q0"":""6""}","","","","","","","","","",""
"","instructions","2","77971","0.0-2.0","nk6aqkf3bjlan4c","{""user_agent"":""Mozilla/5.0 (Macintosh; Intel Mac OS X 10_14_4) AppleWebKit/537.36 (KHTML, like Gecko) Chrome/74.0.3729.131 Safari/537.36"",""on_chrome"":true,""on_mobile"":false,""language"":""en-US"",""screen_resolution"":[1440,900],""platform"":""MacIntel"",""timezone"":""Europe/Berlin""}","6","58088","","[{""page_index"":0,""viewing_time"":58088}]","","","","","","","","",""
"","call-function","3","77972","0.0-3.0","nk6aqkf3bjlan4c","{""user_agent"":""Mozilla/5.0 (Macintosh; Intel Mac OS X 10_14_4) AppleWebKit/537.36 (KHTML, like Gecko) Chrome/74.0.3729.131 Safari/537.36"",""on_chrome"":true,""on_mobile"":false,""language"":""en-US"",""screen_resolution"":[1440,900],""platform"":""MacIntel"",""timezone"":""Europe/Berlin""}","6","","","","","","","","","","","",""
"","html-voicekey-response","4","80821","0.0-4.0-0.0","nk6aqkf3bjlan4c","{""user_agent"":""Mozilla/5.0 (Macintosh; Intel Mac OS X 10_14_4) AppleWebKit/537.36 (KHTML, like Gecko) Chrome/74.0.3729.131 Safari/537.36"",""on_chrome"":true,""on_mobile"":false,""language"":""en-US"",""screen_resolution"":[1440,900],""platform"":""MacIntel"",""timezone"":""Europe/Berlin""}","6","1363.9550000023796","","","1557932536584","1","","Magdeburg","[]","Magdeburg","true","true","2248.3250000077533"
"","html-voicekey-response","5","85253","0.0-4.1-0.1","nk6aqkf3bjlan4c","{""user_agent"":""Mozilla/5.0 (Macintosh; Intel Mac OS X 10_14_4) AppleWebKit/537.36 (KHTML, like Gecko) Chrome/74.0.3729.131 Safari/537.36"",""on_chrome"":true,""on_mobile"":false,""language"":""en-US"",""screen_resolution"":[1440,900],""platform"":""MacIntel"",""timezone"":""Europe/Berlin""}","6","3171.3000000107336","","","1557932539435","1","","Magdeburg","[]","Magdeburg","true","false","3829.5450000005076"
"","html-voicekey-response","6","87837","0.0-4.2-0.2","nk6aqkf3bjlan4c","{""user_agent"":""Mozilla/5.0 (Macintosh; Intel Mac OS X 10_14_4) AppleWebKit/537.36 (KHTML, like Gecko) Chrome/74.0.3729.131 Safari/537.36"",""on_chrome"":true,""on_mobile"":false,""language"":""en-US"",""screen_resolution"":[1440,900],""platform"":""MacIntel"",""timezone"":""Europe/Berlin""}","6","1140.8849999950967","","","1557932543866","2","","Berlin","[]","Berlin","true","true","1982.689999989816"
"","html-voicekey-response","7","90088","0.0-4.3-0.3","nk6aqkf3bjlan4c","{""user_agent"":""Mozilla/5.0 (Macintosh; Intel Mac OS X 10_14_4) AppleWebKit/537.36 (KHTML, like Gecko) Chrome/74.0.3729.131 Safari/537.36"",""on_chrome"":true,""on_mobile"":false,""language"":""en-US"",""screen_resolution"":[1440,900],""platform"":""MacIntel"",""timezone"":""Europe/Berlin""}","6","873.2849999886006","","","1557932546450","2","","Berlin","[]","Berlin","true","false","1648.509999999078"
"","html-voicekey-response","8","93061","0.0-4.4-0.4","nk6aqkf3bjlan4c","{""user_agent"":""Mozilla/5.0 (Macintosh; Intel Mac OS X 10_14_4) AppleWebKit/537.36 (KHTML, like Gecko) Chrome/74.0.3729.131 Safari/537.36"",""on_chrome"":true,""on_mobile"":false,""language"":""en-US"",""screen_resolution"":[1440,900],""platform"":""MacIntel"",""timezone"":""Europe/Berlin""}","6","1179.5300000029151","","","1557932548700","3","","Ingolstadt","[]","Ingolstadt","true","true","2371.839999992517"
"","html-voicekey-response","9","95477","0.0-4.5-0.5","nk6aqkf3bjlan4c","{""user_agent"":""Mozilla/5.0 (Macintosh; Intel Mac OS X 10_14_4) AppleWebKit/537.36 (KHTML, like Gecko) Chrome/74.0.3729.131 Safari/537.36"",""on_chrome"":true,""on_mobile"":false,""language"":""en-US"",""screen_resolution"":[1440,900],""platform"":""MacIntel"",""timezone"":""Europe/Berlin""}","6","122.85500000310131","","","1557932551674","4","","Würzburg","[]","Würzburg","true","true","1814.5950000034645"
"","html-voicekey-response","10","102811","0.0-4.6-0.6","nk6aqkf3bjlan4c","{""user_agent"":""Mozilla/5.0 (Macintosh; Intel Mac OS X 10_14_4) AppleWebKit/537.36 (KHTML, like Gecko) Chrome/74.0.3729.131 Safari/537.36"",""on_chrome"":true,""on_mobile"":false,""language"":""en-US"",""screen_resolution"":[1440,900],""platform"":""MacIntel"",""timezone"":""Europe/Berlin""}","6","2506.6099999911153","","","1557932554090","3","","","[]","Ingolstadt","false","false","3332.3050000035437"
"","html-voicekey-response","11","106416","0.0-4.7-0.7","nk6aqkf3bjlan4c","{""user_agent"":""Mozilla/5.0 (Macintosh; Intel Mac OS X 10_14_4) AppleWebKit/537.36 (KHTML, like Gecko) Chrome/74.0.3729.131 Safari/537.36"",""on_chrome"":true,""on_mobile"":false,""language"":""en-US"",""screen_resolution"":[1440,900],""platform"":""MacIntel"",""timezone"":""Europe/Berlin""}","6","2178.314999991772","","","1557932561423","4","","Würzburg","[]","Würzburg","true","false","3004.1349999955855"
"","html-voicekey-response","12","109483","0.0-4.8-0.8","nk6aqkf3bjlan4c","{""user_agent"":""Mozilla/5.0 (Macintosh; Intel Mac OS X 10_14_4) AppleWebKit/537.36 (KHTML, like Gecko) Chrome/74.0.3729.131 Safari/537.36"",""on_chrome"":true,""on_mobile"":false,""language"":""en-US"",""screen_resolution"":[1440,900],""platform"":""MacIntel"",""timezone"":""Europe/Berlin""}","6","1439.9800000044984","","","1557932565029","5","","Aachen","[]","Aachen","true","true","2465.315000008559"
"","html-voicekey-response","13","112690","0.0-4.9-0.9","nk6aqkf3bjlan4c","{""user_agent"":""Mozilla/5.0 (Macintosh; Intel Mac OS X 10_14_4) AppleWebKit/537.36 (KHTML, like Gecko) Chrome/74.0.3729.131 Safari/537.36"",""on_chrome"":true,""on_mobile"":false,""language"":""en-US"",""screen_resolution"":[1440,900],""platform"":""MacIntel"",""timezone"":""Europe/Berlin""}","6","1313.6599999941886","","","1557932568096","6","","Dresden","[]","Dresden","true","true","2605.2599999966333"
"","html-voicekey-response","14","115473","0.0-4.10-0.10","nk6aqkf3bjlan4c","{""user_agent"":""Mozilla/5.0 (Macintosh; Intel Mac OS X 10_14_4) AppleWebKit/537.36 (KHTML, like Gecko) Chrome/74.0.3729.131 Safari/537.36"",""on_chrome"":true,""on_mobile"":false,""language"":""en-US"",""screen_resolution"":[1440,900],""platform"":""MacIntel"",""timezone"":""Europe/Berlin""}","6","1107.299999997695","","","1557932571302","5","","Aachen","[]","Aachen","true","false","2182.184999997844"
"","html-voicekey-response","15","118240","0.0-4.11-0.11","nk6aqkf3bjlan4c","{""user_agent"":""Mozilla/5.0 (Macintosh; Intel Mac OS X 10_14_4) AppleWebKit/537.36 (KHTML, like Gecko) Chrome/74.0.3729.131 Safari/537.36"",""on_chrome"":true,""on_mobile"":false,""language"":""en-US"",""screen_resolution"":[1440,900],""platform"":""MacIntel"",""timezone"":""Europe/Berlin""}","6","1240.0699999942212","","","1557932574086","6","","Dresden","[]","Dresden","true","false","2165.8649999881163"
"","html-voicekey-response","16","121157","0.0-4.12-0.12","nk6aqkf3bjlan4c","{""user_agent"":""Mozilla/5.0 (Macintosh; Intel Mac OS X 10_14_4) AppleWebKit/537.36 (KHTML, like Gecko) Chrome/74.0.3729.131 Safari/537.36"",""on_chrome"":true,""on_mobile"":false,""language"":""en-US"",""screen_resolution"":[1440,900],""platform"":""MacIntel"",""timezone"":""Europe/Berlin""}","6","1405.9249999935041","","","1557932576853","1","","Magdeburg","[]","Magdeburg","true","false","2315.05499999912"
"","html-voicekey-response","17","123830","0.0-4.13-0.13","nk6aqkf3bjlan4c","{""user_agent"":""Mozilla/5.0 (Macintosh; Intel Mac OS X 10_14_4) AppleWebKit/537.36 (KHTML, like Gecko) Chrome/74.0.3729.131 Safari/537.36"",""on_chrome"":true,""on_mobile"":false,""language"":""en-US"",""screen_resolution"":[1440,900],""platform"":""MacIntel"",""timezone"":""Europe/Berlin""}","6","1145.4100000062958","","","1557932579770","7","","Erfurt","[]","Erfurt","true","true","2070.7300000067335"
"","html-voicekey-response","18","127112","0.0-4.14-0.14","nk6aqkf3bjlan4c","{""user_agent"":""Mozilla/5.0 (Macintosh; Intel Mac OS X 10_14_4) AppleWebKit/537.36 (KHTML, like Gecko) Chrome/74.0.3729.131 Safari/537.36"",""on_chrome"":true,""on_mobile"":false,""language"":""en-US"",""screen_resolution"":[1440,900],""platform"":""MacIntel"",""timezone"":""Europe/Berlin""}","6","1605.8649999993854","","","1557932582443","8","","Gotha","[]","Gotha","true","true","2681.014999994659"
"","html-voicekey-response","19","130430","0.0-4.15-0.15","nk6aqkf3bjlan4c","{""user_agent"":""Mozilla/5.0 (Macintosh; Intel Mac OS X 10_14_4) AppleWebKit/537.36 (KHTML, like Gecko) Chrome/74.0.3729.131 Safari/537.36"",""on_chrome"":true,""on_mobile"":false,""language"":""en-US"",""screen_resolution"":[1440,900],""platform"":""MacIntel"",""timezone"":""Europe/Berlin""}","6","1673.7750000118745","","","1557932585725","7","","Erfurt","[]","Erfurt","true","false","2716.02000000712"
"","html-voicekey-response","20","133102","0.0-4.16-0.16","nk6aqkf3bjlan4c","{""user_agent"":""Mozilla/5.0 (Macintosh; Intel Mac OS X 10_14_4) AppleWebKit/537.36 (KHTML, like Gecko) Chrome/74.0.3729.131 Safari/537.36"",""on_chrome"":true,""on_mobile"":false,""language"":""en-US"",""screen_resolution"":[1440,900],""platform"":""MacIntel"",""timezone"":""Europe/Berlin""}","6","1046.1750000047964","","","1557932589042","8","","Gotha","[]","Gotha","true","false","2071.5350000100443"
"","html-voicekey-response","21","135769","0.0-4.17-0.17","nk6aqkf3bjlan4c","{""user_agent"":""Mozilla/5.0 (Macintosh; Intel Mac OS X 10_14_4) AppleWebKit/537.36 (KHTML, like Gecko) Chrome/74.0.3729.131 Safari/537.36"",""on_chrome"":true,""on_mobile"":false,""language"":""en-US"",""screen_resolution"":[1440,900],""platform"":""MacIntel"",""timezone"":""Europe/Berlin""}","6","1155.7100000007545","","","1557932591715","2","","Berlin","[]","Berlin","true","false","2064.6399999968708"
"","html-voicekey-response","22","139018","0.0-4.18-0.18","nk6aqkf3bjlan4c","{""user_agent"":""Mozilla/5.0 (Macintosh; Intel Mac OS X 10_14_4) AppleWebKit/537.36 (KHTML, like Gecko) Chrome/74.0.3729.131 Safari/537.36"",""on_chrome"":true,""on_mobile"":false,""language"":""en-US"",""screen_resolution"":[1440,900],""platform"":""MacIntel"",""timezone"":""Europe/Berlin""}","6","1525.1749999968802","","","1557932594382","9","","München","[]","München","true","true","2647.6499999989755"
"","html-voicekey-response","23","150570","0.0-4.19-0.19","nk6aqkf3bjlan4c","{""user_agent"":""Mozilla/5.0 (Macintosh; Intel Mac OS X 10_14_4) AppleWebKit/537.36 (KHTML, like Gecko) Chrome/74.0.3729.131 Safari/537.36"",""on_chrome"":true,""on_mobile"":false,""language"":""en-US"",""screen_resolution"":[1440,900],""platform"":""MacIntel"",""timezone"":""Europe/Berlin""}","6","6773.580000002612","","","1557932597630","3","","","[]","Ingolstadt","false","false","7549.689999999828"
"","html-voicekey-response","24","153727","0.0-4.20-0.20","nk6aqkf3bjlan4c","{""user_agent"":""Mozilla/5.0 (Macintosh; Intel Mac OS X 10_14_4) AppleWebKit/537.36 (KHTML, like Gecko) Chrome/74.0.3729.131 Safari/537.36"",""on_chrome"":true,""on_mobile"":false,""language"":""en-US"",""screen_resolution"":[1440,900],""platform"":""MacIntel"",""timezone"":""Europe/Berlin""}","6","1547.834999999241","","","1557932609183","9","","München","[]","München","true","false","2555.399999997462"
"","html-voicekey-response","25","157811","0.0-4.21-0.21","nk6aqkf3bjlan4c","{""user_agent"":""Mozilla/5.0 (Macintosh; Intel Mac OS X 10_14_4) AppleWebKit/537.36 (KHTML, like Gecko) Chrome/74.0.3729.131 Safari/537.36"",""on_chrome"":true,""on_mobile"":false,""language"":""en-US"",""screen_resolution"":[1440,900],""platform"":""MacIntel"",""timezone"":""Europe/Berlin""}","6","2572.5550000004937","","","1557932612340","4","","Würzburg","[]","Würzburg","true","false","3482.26999999315"
"","html-voicekey-response","26","161086","0.0-4.22-0.22","nk6aqkf3bjlan4c","{""user_agent"":""Mozilla/5.0 (Macintosh; Intel Mac OS X 10_14_4) AppleWebKit/537.36 (KHTML, like Gecko) Chrome/74.0.3729.131 Safari/537.36"",""on_chrome"":true,""on_mobile"":false,""language"":""en-US"",""screen_resolution"":[1440,900],""platform"":""MacIntel"",""timezone"":""Europe/Berlin""}","6","1748.1549999882468","","","1557932616424","5","","Aachen","[]","Aachen","true","false","2673.3299999905284"
"","html-voicekey-response","27","163802","0.0-4.23-0.23","nk6aqkf3bjlan4c","{""user_agent"":""Mozilla/5.0 (Macintosh; Intel Mac OS X 10_14_4) AppleWebKit/537.36 (KHTML, like Gecko) Chrome/74.0.3729.131 Safari/537.36"",""on_chrome"":true,""on_mobile"":false,""language"":""en-US"",""screen_resolution"":[1440,900],""platform"":""MacIntel"",""timezone"":""Europe/Berlin""}","6","1256.1599999988453","","","1557932619699","6","","Dresden","[]","Dresden","true","false","2114.9850000074366"
"","html-voicekey-response","28","166619","0.0-4.24-0.24","nk6aqkf3bjlan4c","{""user_agent"":""Mozilla/5.0 (Macintosh; Intel Mac OS X 10_14_4) AppleWebKit/537.36 (KHTML, like Gecko) Chrome/74.0.3729.131 Safari/537.36"",""on_chrome"":true,""on_mobile"":false,""language"":""en-US"",""screen_resolution"":[1440,900],""platform"":""MacIntel"",""timezone"":""Europe/Berlin""}","6","1323.8849999996369","","","1557932622415","10","","Heidelberg","[]","Heidelberg","true","true","2215.5449999991106"
"","html-voicekey-response","29","170044","0.0-4.25-0.25","nk6aqkf3bjlan4c","{""user_agent"":""Mozilla/5.0 (Macintosh; Intel Mac OS X 10_14_4) AppleWebKit/537.36 (KHTML, like Gecko) Chrome/74.0.3729.131 Safari/537.36"",""on_chrome"":true,""on_mobile"":false,""language"":""en-US"",""screen_resolution"":[1440,900],""platform"":""MacIntel"",""timezone"":""Europe/Berlin""}","6","1672.079999998305","","","1557932625233","11","","Alfeld","[]","Alfeld","true","true","2822.474999993574"
"","html-voicekey-response","30","172927","0.0-4.26-0.26","nk6aqkf3bjlan4c","{""user_agent"":""Mozilla/5.0 (Macintosh; Intel Mac OS X 10_14_4) AppleWebKit/537.36 (KHTML, like Gecko) Chrome/74.0.3729.131 Safari/537.36"",""on_chrome"":true,""on_mobile"":false,""language"":""en-US"",""screen_resolution"":[1440,900],""platform"":""MacIntel"",""timezone"":""Europe/Berlin""}","6","1072.260000009765","","","1557932628657","10","","Heidelberg","[]","Heidelberg","true","false","2281.3050000113435"
"","html-voicekey-response","31","175609","0.0-4.27-0.27","nk6aqkf3bjlan4c","{""user_agent"":""Mozilla/5.0 (Macintosh; Intel Mac OS X 10_14_4) AppleWebKit/537.36 (KHTML, like Gecko) Chrome/74.0.3729.131 Safari/537.36"",""on_chrome"":true,""on_mobile"":false,""language"":""en-US"",""screen_resolution"":[1440,900],""platform"":""MacIntel"",""timezone"":""Europe/Berlin""}","6","1089.4549999882934","","","1557932631540","11","","Alfeld","[]","Alfeld","true","false","2081.2149999983376"
"","html-voicekey-response","32","178510","0.0-4.28-0.28","nk6aqkf3bjlan4c","{""user_agent"":""Mozilla/5.0 (Macintosh; Intel Mac OS X 10_14_4) AppleWebKit/537.36 (KHTML, like Gecko) Chrome/74.0.3729.131 Safari/537.36"",""on_chrome"":true,""on_mobile"":false,""language"":""en-US"",""screen_resolution"":[1440,900],""platform"":""MacIntel"",""timezone"":""Europe/Berlin""}","6","1657.1049999855227","","","1557932634222","7","","Erfurt","[]","Erfurt","true","false","2299.1299999994226"
"","html-voicekey-response","33","181981","0.0-4.29-0.29","nk6aqkf3bjlan4c","{""user_agent"":""Mozilla/5.0 (Macintosh; Intel Mac OS X 10_14_4) AppleWebKit/537.36 (KHTML, like Gecko) Chrome/74.0.3729.131 Safari/537.36"",""on_chrome"":true,""on_mobile"":false,""language"":""en-US"",""screen_resolution"":[1440,900],""platform"":""MacIntel"",""timezone"":""Europe/Berlin""}","6","2112.2199999898207","","","1557932637122","8","","Gotha","[]","Gotha","true","false","2870.549999992363"
"","html-voicekey-response","34","185498","0.0-4.30-0.30","nk6aqkf3bjlan4c","{""user_agent"":""Mozilla/5.0 (Macintosh; Intel Mac OS X 10_14_4) AppleWebKit/537.36 (KHTML, like Gecko) Chrome/74.0.3729.131 Safari/537.36"",""on_chrome"":true,""on_mobile"":false,""language"":""en-US"",""screen_resolution"":[1440,900],""platform"":""MacIntel"",""timezone"":""Europe/Berlin""}","6","2123.744999998808","","","1557932640594","3","","Ingolstadt","[]","Ingolstadt","true","false","2915.5400000017835"
"","html-voicekey-response","35","187915","0.0-4.31-0.31","nk6aqkf3bjlan4c","{""user_agent"":""Mozilla/5.0 (Macintosh; Intel Mac OS X 10_14_4) AppleWebKit/537.36 (KHTML, like Gecko) Chrome/74.0.3729.131 Safari/537.36"",""on_chrome"":true,""on_mobile"":false,""language"":""en-US"",""screen_resolution"":[1440,900],""platform"":""MacIntel"",""timezone"":""Europe/Berlin""}","6","1172.0149999981281","","","1557932644112","12","","Dessau","[]","Dessau","true","true","1814.2450000013923"
"","html-voicekey-response","36","193104","0.0-4.32-0.32","nk6aqkf3bjlan4c","{""user_agent"":""Mozilla/5.0 (Macintosh; Intel Mac OS X 10_14_4) AppleWebKit/537.36 (KHTML, like Gecko) Chrome/74.0.3729.131 Safari/537.36"",""on_chrome"":true,""on_mobile"":false,""language"":""en-US"",""screen_resolution"":[1440,900],""platform"":""MacIntel"",""timezone"":""Europe/Berlin""}","6","4006.164999993262","","","1557932646528","13","","Chemnitz","[]","Chemnitz","true","true","4587.189999991097"
"","html-voicekey-response","37","196271","0.0-4.33-0.33","nk6aqkf3bjlan4c","{""user_agent"":""Mozilla/5.0 (Macintosh; Intel Mac OS X 10_14_4) AppleWebKit/537.36 (KHTML, like Gecko) Chrome/74.0.3729.131 Safari/537.36"",""on_chrome"":true,""on_mobile"":false,""language"":""en-US"",""screen_resolution"":[1440,900],""platform"":""MacIntel"",""timezone"":""Europe/Berlin""}","6","1889.5399999981514","","","1557932651717","12","","Dessau","[]","Dessau","true","false","2565.2549999940675"
"","html-voicekey-response","38","199655","0.0-4.34-0.34","nk6aqkf3bjlan4c","{""user_agent"":""Mozilla/5.0 (Macintosh; Intel Mac OS X 10_14_4) AppleWebKit/537.36 (KHTML, like Gecko) Chrome/74.0.3729.131 Safari/537.36"",""on_chrome"":true,""on_mobile"":false,""language"":""en-US"",""screen_resolution"":[1440,900],""platform"":""MacIntel"",""timezone"":""Europe/Berlin""}","6","2138.7800000027987","","","1557932654884","13","","Chemnitz","[]","Chemnitz","true","false","2781.6250000032596"
"","html-voicekey-response","39","202261","0.0-4.35-0.35","nk6aqkf3bjlan4c","{""user_agent"":""Mozilla/5.0 (Macintosh; Intel Mac OS X 10_14_4) AppleWebKit/537.36 (KHTML, like Gecko) Chrome/74.0.3729.131 Safari/537.36"",""on_chrome"":true,""on_mobile"":false,""language"":""en-US"",""screen_resolution"":[1440,900],""platform"":""MacIntel"",""timezone"":""Europe/Berlin""}","6","1311.4500000027242","","","1557932658269","14","","Potsdam","[]","Potsdam","true","true","2002.6849999994738"
"","html-voicekey-response","40","205027","0.0-4.36-0.36","nk6aqkf3bjlan4c","{""user_agent"":""Mozilla/5.0 (Macintosh; Intel Mac OS X 10_14_4) AppleWebKit/537.36 (KHTML, like Gecko) Chrome/74.0.3729.131 Safari/537.36"",""on_chrome"":true,""on_mobile"":false,""language"":""en-US"",""screen_resolution"":[1440,900],""platform"":""MacIntel"",""timezone"":""Europe/Berlin""}","6","1273.0850000023843","","","1557932660874","9","","München","[]","München","true","false","2164.7499999962747"
"","html-voicekey-response","41","208276","0.0-4.37-0.37","nk6aqkf3bjlan4c","{""user_agent"":""Mozilla/5.0 (Macintosh; Intel Mac OS X 10_14_4) AppleWebKit/537.36 (KHTML, like Gecko) Chrome/74.0.3729.131 Safari/537.36"",""on_chrome"":true,""on_mobile"":false,""language"":""en-US"",""screen_resolution"":[1440,900],""platform"":""MacIntel"",""timezone"":""Europe/Berlin""}","6","1939.8449999951758","","","1557932663639","14","","Potsdam","[]","Potsdam","true","false","2648.509999999078"
"","html-voicekey-response","42","211093","0.0-4.38-0.38","nk6aqkf3bjlan4c","{""user_agent"":""Mozilla/5.0 (Macintosh; Intel Mac OS X 10_14_4) AppleWebKit/537.36 (KHTML, like Gecko) Chrome/74.0.3729.131 Safari/537.36"",""on_chrome"":true,""on_mobile"":false,""language"":""en-US"",""screen_resolution"":[1440,900],""platform"":""MacIntel"",""timezone"":""Europe/Berlin""}","6","1207.5299999940676","","","1557932666889","15","","Nürnberg","[]","Nürnberg","true","true","2215.219999998226"
"","html-voicekey-response","43","214267","0.0-4.39-0.39","nk6aqkf3bjlan4c","{""user_agent"":""Mozilla/5.0 (Macintosh; Intel Mac OS X 10_14_4) AppleWebKit/537.36 (KHTML, like Gecko) Chrome/74.0.3729.131 Safari/537.36"",""on_chrome"":true,""on_mobile"":false,""language"":""en-US"",""screen_resolution"":[1440,900],""platform"":""MacIntel"",""timezone"":""Europe/Berlin""}","6","1596.639999997779","","","1557932669706","16","","Schwangau","[]","Schwangau","true","true","2571.765000000596"
"","html-voicekey-response","44","217300","0.0-4.40-0.40","nk6aqkf3bjlan4c","{""user_agent"":""Mozilla/5.0 (Macintosh; Intel Mac OS X 10_14_4) AppleWebKit/537.36 (KHTML, like Gecko) Chrome/74.0.3729.131 Safari/537.36"",""on_chrome"":true,""on_mobile"":false,""language"":""en-US"",""screen_resolution"":[1440,900],""platform"":""MacIntel"",""timezone"":""Europe/Berlin""}","6","1272.3700000004378","","","1557932672881","15","","Nürnberg","[]","Nürnberg","true","false","2430.624999993597"
"","html-voicekey-response","45","219933","0.0-4.41-0.41","nk6aqkf3bjlan4c","{""user_agent"":""Mozilla/5.0 (Macintosh; Intel Mac OS X 10_14_4) AppleWebKit/537.36 (KHTML, like Gecko) Chrome/74.0.3729.131 Safari/537.36"",""on_chrome"":true,""on_mobile"":false,""language"":""en-US"",""screen_resolution"":[1440,900],""platform"":""MacIntel"",""timezone"":""Europe/Berlin""}","6","1055.4549999886426","","","1557932675913","16","","Schwangau","[]","Schwangau","true","false","2030.8599999989383"
"","html-voicekey-response","46","238841","0.0-4.42-0.42","nk6aqkf3bjlan4c","{""user_agent"":""Mozilla/5.0 (Macintosh; Intel Mac OS X 10_14_4) AppleWebKit/537.36 (KHTML, like Gecko) Chrome/74.0.3729.131 Safari/537.36"",""on_chrome"":true,""on_mobile"":false,""language"":""en-US"",""screen_resolution"":[1440,900],""platform"":""MacIntel"",""timezone"":""Europe/Berlin""}","6","14221.090000000759","","","1557932678548","10","","","[]","Heidelberg","false","false","14903.174999999464"
"","html-voicekey-response","47","245516","0.0-4.43-0.43","nk6aqkf3bjlan4c","{""user_agent"":""Mozilla/5.0 (Macintosh; Intel Mac OS X 10_14_4) AppleWebKit/537.36 (KHTML, like Gecko) Chrome/74.0.3729.131 Safari/537.36"",""on_chrome"":true,""on_mobile"":false,""language"":""en-US"",""screen_resolution"":[1440,900],""platform"":""MacIntel"",""timezone"":""Europe/Berlin""}","6","5248.4849999981","","","1557932697454","11","","Alfeld","[]","Alfeld","true","false","6073.545000006561"
"","html-voicekey-response","48","248422","0.0-4.44-0.44","nk6aqkf3bjlan4c","{""user_agent"":""Mozilla/5.0 (Macintosh; Intel Mac OS X 10_14_4) AppleWebKit/537.36 (KHTML, like Gecko) Chrome/74.0.3729.131 Safari/537.36"",""on_chrome"":true,""on_mobile"":false,""language"":""en-US"",""screen_resolution"":[1440,900],""platform"":""MacIntel"",""timezone"":""Europe/Berlin""}","6","1594.565000001085","","","1557932704129","4","","Würzburg","[]","Würzburg","true","false","2303.879999992205"
"","html-voicekey-response","49","250955","0.0-4.45-0.45","nk6aqkf3bjlan4c","{""user_agent"":""Mozilla/5.0 (Macintosh; Intel Mac OS X 10_14_4) AppleWebKit/537.36 (KHTML, like Gecko) Chrome/74.0.3729.131 Safari/537.36"",""on_chrome"":true,""on_mobile"":false,""language"":""en-US"",""screen_resolution"":[1440,900],""platform"":""MacIntel"",""timezone"":""Europe/Berlin""}","6","1272.3550000026357","","","1557932707035","12","","Dessau","[]","Dessau","true","false","1931.1999999918044"
"","html-voicekey-response","50","253488","0.0-4.46-0.46","nk6aqkf3bjlan4c","{""user_agent"":""Mozilla/5.0 (Macintosh; Intel Mac OS X 10_14_4) AppleWebKit/537.36 (KHTML, like Gecko) Chrome/74.0.3729.131 Safari/537.36"",""on_chrome"":true,""on_mobile"":false,""language"":""en-US"",""screen_resolution"":[1440,900],""platform"":""MacIntel"",""timezone"":""Europe/Berlin""}","6","1105.7249999956462","","","1557932709568","13","","Chemnitz","[]","Chemnitz","true","false","1930.5099999910453"
"","html-voicekey-response","51","258353","0.0-4.47-0.47","nk6aqkf3bjlan4c","{""user_agent"":""Mozilla/5.0 (Macintosh; Intel Mac OS X 10_14_4) AppleWebKit/537.36 (KHTML, like Gecko) Chrome/74.0.3729.131 Safari/537.36"",""on_chrome"":true,""on_mobile"":false,""language"":""en-US"",""screen_resolution"":[1440,900],""platform"":""MacIntel"",""timezone"":""Europe/Berlin""}","6","3838.5000000069617","","","1557932712101","14","","Potsdam","[]","Potsdam","true","false","4263.774999999441"
"","html-voicekey-response","52","261232","0.0-4.48-0.48","nk6aqkf3bjlan4c","{""user_agent"":""Mozilla/5.0 (Macintosh; Intel Mac OS X 10_14_4) AppleWebKit/537.36 (KHTML, like Gecko) Chrome/74.0.3729.131 Safari/537.36"",""on_chrome"":true,""on_mobile"":false,""language"":""en-US"",""screen_resolution"":[1440,900],""platform"":""MacIntel"",""timezone"":""Europe/Berlin""}","6","1449.4499999944587","","","1557932716968","15","","Nürnberg","[]","Nürnberg","true","false","2274.8700000083772"
"","html-voicekey-response","53","277482","0.0-4.49-0.49","nk6aqkf3bjlan4c","{""user_agent"":""Mozilla/5.0 (Macintosh; Intel Mac OS X 10_14_4) AppleWebKit/537.36 (KHTML, like Gecko) Chrome/74.0.3729.131 Safari/537.36"",""on_chrome"":true,""on_mobile"":false,""language"":""en-US"",""screen_resolution"":[1440,900],""platform"":""MacIntel"",""timezone"":""Europe/Berlin""}","6","11472.930000012484","","","1557932719845","10","","","[]","Heidelberg","false","false","12247.085000009974"
"","html-voicekey-response","54","280644","0.0-4.50-0.50","nk6aqkf3bjlan4c","{""user_agent"":""Mozilla/5.0 (Macintosh; Intel Mac OS X 10_14_4) AppleWebKit/537.36 (KHTML, like Gecko) Chrome/74.0.3729.131 Safari/537.36"",""on_chrome"":true,""on_mobile"":false,""language"":""en-US"",""screen_resolution"":[1440,900],""platform"":""MacIntel"",""timezone"":""Europe/Berlin""}","6","1649.9949999941514","","","1557932736095","16","","Schwangau","[]","Schwangau","true","false","2559.6699999878183"
"","html-voicekey-response","55","284612","0.0-4.51-0.51","nk6aqkf3bjlan4c","{""user_agent"":""Mozilla/5.0 (Macintosh; Intel Mac OS X 10_14_4) AppleWebKit/537.36 (KHTML, like Gecko) Chrome/74.0.3729.131 Safari/537.36"",""on_chrome"":true,""on_mobile"":false,""language"":""en-US"",""screen_resolution"":[1440,900],""platform"":""MacIntel"",""timezone"":""Europe/Berlin""}","6","2322.070000003651","","","1557932739257","3","","Ingolstadt","[]","Ingolstadt","true","false","3364.1400000051362"
"","html-voicekey-response","56","297966","0.0-4.52-0.52","nk6aqkf3bjlan4c","{""user_agent"":""Mozilla/5.0 (Macintosh; Intel Mac OS X 10_14_4) AppleWebKit/537.36 (KHTML, like Gecko) Chrome/74.0.3729.131 Safari/537.36"",""on_chrome"":true,""on_mobile"":false,""language"":""en-US"",""screen_resolution"":[1440,900],""platform"":""MacIntel"",""timezone"":""Europe/Berlin""}","6","8659.94500000109","","","1557932743225","11","","","[]","Alfeld","false","false","9352.050000001327"
"","html-voicekey-response","57","302673","0.0-4.53-0.53","nk6aqkf3bjlan4c","{""user_agent"":""Mozilla/5.0 (Macintosh; Intel Mac OS X 10_14_4) AppleWebKit/537.36 (KHTML, like Gecko) Chrome/74.0.3729.131 Safari/537.36"",""on_chrome"":true,""on_mobile"":false,""language"":""en-US"",""screen_resolution"":[1440,900],""platform"":""MacIntel"",""timezone"":""Europe/Berlin""}","6","3513.6400000136114","","","1557932756579","10","","Heidelberg","[]","Heidelberg","true","false","4104.445000004489"
"","html-voicekey-response","58","305140","0.0-4.54-0.54","nk6aqkf3bjlan4c","{""user_agent"":""Mozilla/5.0 (Macintosh; Intel Mac OS X 10_14_4) AppleWebKit/537.36 (KHTML, like Gecko) Chrome/74.0.3729.131 Safari/537.36"",""on_chrome"":true,""on_mobile"":false,""language"":""en-US"",""screen_resolution"":[1440,900],""platform"":""MacIntel"",""timezone"":""Europe/Berlin""}","6","1223.5100000051084","","","1557932761285","14","","Potsdam","[]","Potsdam","true","false","1865.4400000086753"
"","html-voicekey-response","59","307731","0.0-4.55-0.55","nk6aqkf3bjlan4c","{""user_agent"":""Mozilla/5.0 (Macintosh; Intel Mac OS X 10_14_4) AppleWebKit/537.36 (KHTML, like Gecko) Chrome/74.0.3729.131 Safari/537.36"",""on_chrome"":true,""on_mobile"":false,""language"":""en-US"",""screen_resolution"":[1440,900],""platform"":""MacIntel"",""timezone"":""Europe/Berlin""}","6","1264.0500000068919","","","1557932763753","17","","Leipzig","[]","Leipzig","true","true","1989.450000008219"
"","html-voicekey-response","60","310546","0.0-4.56-0.56","nk6aqkf3bjlan4c","{""user_agent"":""Mozilla/5.0 (Macintosh; Intel Mac OS X 10_14_4) AppleWebKit/537.36 (KHTML, like Gecko) Chrome/74.0.3729.131 Safari/537.36"",""on_chrome"":true,""on_mobile"":false,""language"":""en-US"",""screen_resolution"":[1440,900],""platform"":""MacIntel"",""timezone"":""Europe/Berlin""}","6","1439.3099999959582","","","1557932766344","18","","Forchheim","[]","Forchheim","true","true","2213.7950000033015"
"","html-voicekey-response","61","312814","0.0-4.57-0.57","nk6aqkf3bjlan4c","{""user_agent"":""Mozilla/5.0 (Macintosh; Intel Mac OS X 10_14_4) AppleWebKit/537.36 (KHTML, like Gecko) Chrome/74.0.3729.131 Safari/537.36"",""on_chrome"":true,""on_mobile"":false,""language"":""en-US"",""screen_resolution"":[1440,900],""platform"":""MacIntel"",""timezone"":""Europe/Berlin""}","6","990.649999986845","","","1557932769160","17","","Leipzig","[]","Leipzig","true","false","1665.3899999946589"
"","html-voicekey-response","62","316330","0.0-4.58-0.58","nk6aqkf3bjlan4c","{""user_agent"":""Mozilla/5.0 (Macintosh; Intel Mac OS X 10_14_4) AppleWebKit/537.36 (KHTML, like Gecko) Chrome/74.0.3729.131 Safari/537.36"",""on_chrome"":true,""on_mobile"":false,""language"":""en-US"",""screen_resolution"":[1440,900],""platform"":""MacIntel"",""timezone"":""Europe/Berlin""}","6","2339.7449999991572","","","1557932771427","18","","Forchheim","[]","Forchheim","true","false","2913.394999995944"
"","html-voicekey-response","63","320005","0.0-4.59-0.59","nk6aqkf3bjlan4c","{""user_agent"":""Mozilla/5.0 (Macintosh; Intel Mac OS X 10_14_4) AppleWebKit/537.36 (KHTML, like Gecko) Chrome/74.0.3729.131 Safari/537.36"",""on_chrome"":true,""on_mobile"":false,""language"":""en-US"",""screen_resolution"":[1440,900],""platform"":""MacIntel"",""timezone"":""Europe/Berlin""}","6","2147.9200000120095","","","1557932774943","11","","Alfeld","[]","Alfeld","true","false","3072.9100000025937"
"","html-voicekey-response","64","322755","0.0-4.60-0.60","nk6aqkf3bjlan4c","{""user_agent"":""Mozilla/5.0 (Macintosh; Intel Mac OS X 10_14_4) AppleWebKit/537.36 (KHTML, like Gecko) Chrome/74.0.3729.131 Safari/537.36"",""on_chrome"":true,""on_mobile"":false,""language"":""en-US"",""screen_resolution"":[1440,900],""platform"":""MacIntel"",""timezone"":""Europe/Berlin""}","6","1388.790000006184","","","1557932778618","10","","Heidelberg","[]","Heidelberg","true","false","2147.324999998091"
"","html-voicekey-response","65","325537","0.0-4.61-0.61","nk6aqkf3bjlan4c","{""user_agent"":""Mozilla/5.0 (Macintosh; Intel Mac OS X 10_14_4) AppleWebKit/537.36 (KHTML, like Gecko) Chrome/74.0.3729.131 Safari/537.36"",""on_chrome"":true,""on_mobile"":false,""language"":""en-US"",""screen_resolution"":[1440,900],""platform"":""MacIntel"",""timezone"":""Europe/Berlin""}","6","1172.6850000066684","","","1557932781368","19","","Frankfurt","[]","Frankfurt","true","true","2180.305000001681"
"","html-voicekey-response","66","327894","0.0-4.62-0.62","nk6aqkf3bjlan4c","{""user_agent"":""Mozilla/5.0 (Macintosh; Intel Mac OS X 10_14_4) AppleWebKit/537.36 (KHTML, like Gecko) Chrome/74.0.3729.131 Safari/537.36"",""on_chrome"":true,""on_mobile"":false,""language"":""en-US"",""screen_resolution"":[1440,900],""platform"":""MacIntel"",""timezone"":""Europe/Berlin""}","6","1123.5549999926939","","","1557932784150","20","","Hamburg ","[]","Hamburg ","true","true","1755.9699999983422"
"","html-voicekey-response","67","330312","0.0-4.63-0.63","nk6aqkf3bjlan4c","{""user_agent"":""Mozilla/5.0 (Macintosh; Intel Mac OS X 10_14_4) AppleWebKit/537.36 (KHTML, like Gecko) Chrome/74.0.3729.131 Safari/537.36"",""on_chrome"":true,""on_mobile"":false,""language"":""en-US"",""screen_resolution"":[1440,900],""platform"":""MacIntel"",""timezone"":""Europe/Berlin""}","6","1054.3649999979884","","","1557932786509","19","","Frankfurt","[]","Frankfurt","true","false","1813.4049999935087"
"","html-voicekey-response","68","332379","0.0-4.64-0.64","nk6aqkf3bjlan4c","{""user_agent"":""Mozilla/5.0 (Macintosh; Intel Mac OS X 10_14_4) AppleWebKit/537.36 (KHTML, like Gecko) Chrome/74.0.3729.131 Safari/537.36"",""on_chrome"":true,""on_mobile"":false,""language"":""en-US"",""screen_resolution"":[1440,900],""platform"":""MacIntel"",""timezone"":""Europe/Berlin""}","6","905.0700000023702","","","1557932788925","20","","Hamburg ","[]","Hamburg ","true","false","1464.6599999978207"
"","html-voicekey-response","69","334912","0.0-4.65-0.65","nk6aqkf3bjlan4c","{""user_agent"":""Mozilla/5.0 (Macintosh; Intel Mac OS X 10_14_4) AppleWebKit/537.36 (KHTML, like Gecko) Chrome/74.0.3729.131 Safari/537.36"",""on_chrome"":true,""on_mobile"":false,""language"":""en-US"",""screen_resolution"":[1440,900],""platform"":""MacIntel"",""timezone"":""Europe/Berlin""}","6","1122.0799999953947","","","1557932790991","21","","Konstanz","[]","Konstanz","true","true","1931.5550000028452"
"","html-voicekey-response","70","337661","0.0-4.66-0.66","nk6aqkf3bjlan4c","{""user_agent"":""Mozilla/5.0 (Macintosh; Intel Mac OS X 10_14_4) AppleWebKit/537.36 (KHTML, like Gecko) Chrome/74.0.3729.131 Safari/537.36"",""on_chrome"":true,""on_mobile"":false,""language"":""en-US"",""screen_resolution"":[1440,900],""platform"":""MacIntel"",""timezone"":""Europe/Berlin""}","6","1471.1749999931549","","","1557932793526","22","","Bamberg","[]","Bamberg","true","true","2145.844999991823"
"","html-voicekey-response","71","340354","0.0-4.67-0.67","nk6aqkf3bjlan4c","{""user_agent"":""Mozilla/5.0 (Macintosh; Intel Mac OS X 10_14_4) AppleWebKit/537.36 (KHTML, like Gecko) Chrome/74.0.3729.131 Safari/537.36"",""on_chrome"":true,""on_mobile"":false,""language"":""en-US"",""screen_resolution"":[1440,900],""platform"":""MacIntel"",""timezone"":""Europe/Berlin""}","6","1266.1800000003773","","","1557932796275","21","","Konstanz","[]","Konstanz","true","false","2090.9350000001723"
"","html-voicekey-response","72","342721","0.0-4.68-0.68","nk6aqkf3bjlan4c","{""user_agent"":""Mozilla/5.0 (Macintosh; Intel Mac OS X 10_14_4) AppleWebKit/537.36 (KHTML, like Gecko) Chrome/74.0.3729.131 Safari/537.36"",""on_chrome"":true,""on_mobile"":false,""language"":""en-US"",""screen_resolution"":[1440,900],""platform"":""MacIntel"",""timezone"":""Europe/Berlin""}","6","939.840000000759","","","1557932798967","22","","Bamberg","[]","Bamberg","true","false","1765.2499999967404"
"","html-voicekey-response","73","345021","0.0-4.69-0.69","nk6aqkf3bjlan4c","{""user_agent"":""Mozilla/5.0 (Macintosh; Intel Mac OS X 10_14_4) AppleWebKit/537.36 (KHTML, like Gecko) Chrome/74.0.3729.131 Safari/537.36"",""on_chrome"":true,""on_mobile"":false,""language"":""en-US"",""screen_resolution"":[1440,900],""platform"":""MacIntel"",""timezone"":""Europe/Berlin""}","6","1389.3749999932247","","","1557932801334","23","","Stuttgart","[]","Stuttgart","true","true","1697.889999995823"
"","html-voicekey-response","74","347238","0.0-4.70-0.70","nk6aqkf3bjlan4c","{""user_agent"":""Mozilla/5.0 (Macintosh; Intel Mac OS X 10_14_4) AppleWebKit/537.36 (KHTML, like Gecko) Chrome/74.0.3729.131 Safari/537.36"",""on_chrome"":true,""on_mobile"":false,""language"":""en-US"",""screen_resolution"":[1440,900],""platform"":""MacIntel"",""timezone"":""Europe/Berlin""}","6","972.2849999905796","","","1557932803634","24","","Köln","[]","Köln","true","true","1615.059999996447"
"","html-voicekey-response","75","349596","0.0-4.71-0.71","nk6aqkf3bjlan4c","{""user_agent"":""Mozilla/5.0 (Macintosh; Intel Mac OS X 10_14_4) AppleWebKit/537.36 (KHTML, like Gecko) Chrome/74.0.3729.131 Safari/537.36"",""on_chrome"":true,""on_mobile"":false,""language"":""en-US"",""screen_resolution"":[1440,900],""platform"":""MacIntel"",""timezone"":""Europe/Berlin""}","6","897.8299999960931","","","1557932805850","23","","Stuttgart","[]","Stuttgart","true","false","1756.84000000183"
"","html-voicekey-response","76","351713","0.0-4.72-0.72","nk6aqkf3bjlan4c","{""user_agent"":""Mozilla/5.0 (Macintosh; Intel Mac OS X 10_14_4) AppleWebKit/537.36 (KHTML, like Gecko) Chrome/74.0.3729.131 Safari/537.36"",""on_chrome"":true,""on_mobile"":false,""language"":""en-US"",""screen_resolution"":[1440,900],""platform"":""MacIntel"",""timezone"":""Europe/Berlin""}","6","839.1099999951897","","","1557932808209","24","","Köln","[]","Köln","true","false","1515.1000000041677"
"","html-voicekey-response","77","354880","0.0-4.73-0.73","nk6aqkf3bjlan4c","{""user_agent"":""Mozilla/5.0 (Macintosh; Intel Mac OS X 10_14_4) AppleWebKit/537.36 (KHTML, like Gecko) Chrome/74.0.3729.131 Safari/537.36"",""on_chrome"":true,""on_mobile"":false,""language"":""en-US"",""screen_resolution"":[1440,900],""platform"":""MacIntel"",""timezone"":""Europe/Berlin""}","6","1289.2649999938208","","","1557932810326","25","","Osnabrück","[]","Osnabrück","true","true","2564.889999994193"
"","html-voicekey-response","78","357696","0.0-4.74-0.74","nk6aqkf3bjlan4c","{""user_agent"":""Mozilla/5.0 (Macintosh; Intel Mac OS X 10_14_4) AppleWebKit/537.36 (KHTML, like Gecko) Chrome/74.0.3729.131 Safari/537.36"",""on_chrome"":true,""on_mobile"":false,""language"":""en-US"",""screen_resolution"":[1440,900],""platform"":""MacIntel"",""timezone"":""Europe/Berlin""}","6","1122.1049999965821","","","1557932813493","17","","Leipzig","[]","Leipzig","true","false","2214.0999999974156"
"","html-voicekey-response","79","370753","0.0-4.75-0.75","nk6aqkf3bjlan4c","{""user_agent"":""Mozilla/5.0 (Macintosh; Intel Mac OS X 10_14_4) AppleWebKit/537.36 (KHTML, like Gecko) Chrome/74.0.3729.131 Safari/537.36"",""on_chrome"":true,""on_mobile"":false,""language"":""en-US"",""screen_resolution"":[1440,900],""platform"":""MacIntel"",""timezone"":""Europe/Berlin""}","6","8379.595000000181","","","1557932816309","25","","","[]","Osnabrück","false","false","9054.929999998421"
"","html-voicekey-response","80","388877","0.0-4.76-0.76","nk6aqkf3bjlan4c","{""user_agent"":""Mozilla/5.0 (Macintosh; Intel Mac OS X 10_14_4) AppleWebKit/537.36 (KHTML, like Gecko) Chrome/74.0.3729.131 Safari/537.36"",""on_chrome"":true,""on_mobile"":false,""language"":""en-US"",""screen_resolution"":[1440,900],""platform"":""MacIntel"",""timezone"":""Europe/Berlin""}","6","13154.745000001485","","","1557932829366","18","","","[]","Forchheim","false","false","14120.77500000305"
"","html-voicekey-response","81","392219","0.0-4.77-0.77","nk6aqkf3bjlan4c","{""user_agent"":""Mozilla/5.0 (Macintosh; Intel Mac OS X 10_14_4) AppleWebKit/537.36 (KHTML, like Gecko) Chrome/74.0.3729.131 Safari/537.36"",""on_chrome"":true,""on_mobile"":false,""language"":""en-US"",""screen_resolution"":[1440,900],""platform"":""MacIntel"",""timezone"":""Europe/Berlin""}","6","2013.1599999966334","","","1557932847491","19","","Frankfurt","[]","Frankfurt","true","false","2739.414999989094"
"","html-voicekey-response","82","394935","0.0-4.78-0.78","nk6aqkf3bjlan4c","{""user_agent"":""Mozilla/5.0 (Macintosh; Intel Mac OS X 10_14_4) AppleWebKit/537.36 (KHTML, like Gecko) Chrome/74.0.3729.131 Safari/537.36"",""on_chrome"":true,""on_mobile"":false,""language"":""en-US"",""screen_resolution"":[1440,900],""platform"":""MacIntel"",""timezone"":""Europe/Berlin""}","6","1372.4400000008523","","","1557932850832","10","","Heidelberg","[]","Heidelberg","true","false","2114.5899999974063"
"","html-voicekey-response","83","397793","0.0-4.79-0.79","nk6aqkf3bjlan4c","{""user_agent"":""Mozilla/5.0 (Macintosh; Intel Mac OS X 10_14_4) AppleWebKit/537.36 (KHTML, like Gecko) Chrome/74.0.3729.131 Safari/537.36"",""on_chrome"":true,""on_mobile"":false,""language"":""en-US"",""screen_resolution"":[1440,900],""platform"":""MacIntel"",""timezone"":""Europe/Berlin""}","6","1613.7150000084425","","","1557932853549","20","","Hamburg ","[]","Hamburg ","true","false","2255.8700000081444"
"","html-voicekey-response","84","409326","0.0-4.80-0.80","nk6aqkf3bjlan4c","{""user_agent"":""Mozilla/5.0 (Macintosh; Intel Mac OS X 10_14_4) AppleWebKit/537.36 (KHTML, like Gecko) Chrome/74.0.3729.131 Safari/537.36"",""on_chrome"":true,""on_mobile"":false,""language"":""en-US"",""screen_resolution"":[1440,900],""platform"":""MacIntel"",""timezone"":""Europe/Berlin""}","6","6688.629999998584","","","1557932856407","21","","","[]","Konstanz","false","false","7530.274999997346"
"","html-voicekey-response","85","421784","0.0-4.81-0.81","nk6aqkf3bjlan4c","{""user_agent"":""Mozilla/5.0 (Macintosh; Intel Mac OS X 10_14_4) AppleWebKit/537.36 (KHTML, like Gecko) Chrome/74.0.3729.131 Safari/537.36"",""on_chrome"":true,""on_mobile"":false,""language"":""en-US"",""screen_resolution"":[1440,900],""platform"":""MacIntel"",""timezone"":""Europe/Berlin""}","6","7311.510000008484","","","1557932867940","22","","","[]","Bamberg","false","false","8454.30500000657"
"","html-voicekey-response","86","424710","0.0-4.82-0.82","nk6aqkf3bjlan4c","{""user_agent"":""Mozilla/5.0 (Macintosh; Intel Mac OS X 10_14_4) AppleWebKit/537.36 (KHTML, like Gecko) Chrome/74.0.3729.131 Safari/537.36"",""on_chrome"":true,""on_mobile"":false,""language"":""en-US"",""screen_resolution"":[1440,900],""platform"":""MacIntel"",""timezone"":""Europe/Berlin""}","6","1464.8399999949384","","","1557932880397","23","","Stuttgart","[]","Stuttgart","true","false","2323.984999995446"
"","html-voicekey-response","87","427460","0.0-4.83-0.83","nk6aqkf3bjlan4c","{""user_agent"":""Mozilla/5.0 (Macintosh; Intel Mac OS X 10_14_4) AppleWebKit/537.36 (KHTML, like Gecko) Chrome/74.0.3729.131 Safari/537.36"",""on_chrome"":true,""on_mobile"":false,""language"":""en-US"",""screen_resolution"":[1440,900],""platform"":""MacIntel"",""timezone"":""Europe/Berlin""}","6","1406.3350000013365","","","1557932883323","24","","Köln","[]","Köln","true","false","2148.2800000085263"
"","html-voicekey-response","88","431931","0.0-4.84-0.84","nk6aqkf3bjlan4c","{""user_agent"":""Mozilla/5.0 (Macintosh; Intel Mac OS X 10_14_4) AppleWebKit/537.36 (KHTML, like Gecko) Chrome/74.0.3729.131 Safari/537.36"",""on_chrome"":true,""on_mobile"":false,""language"":""en-US"",""screen_resolution"":[1440,900],""platform"":""MacIntel"",""timezone"":""Europe/Berlin""}","6","2878.5349999905798","","","1557932886073","11","","Alfeld","[]","Alfeld","true","false","3870.1099999889266"
"","html-voicekey-response","89","441399","0.0-4.85-0.85","nk6aqkf3bjlan4c","{""user_agent"":""Mozilla/5.0 (Macintosh; Intel Mac OS X 10_14_4) AppleWebKit/537.36 (KHTML, like Gecko) Chrome/74.0.3729.131 Safari/537.36"",""on_chrome"":true,""on_mobile"":false,""language"":""en-US"",""screen_resolution"":[1440,900],""platform"":""MacIntel"",""timezone"":""Europe/Berlin""}","6","4189.65999999803","","","1557932890544","25","","","[]","Osnabrück","false","false","5466.57000000414"
"","html-voicekey-response","90","447457","0.0-4.86-0.86","nk6aqkf3bjlan4c","{""user_agent"":""Mozilla/5.0 (Macintosh; Intel Mac OS X 10_14_4) AppleWebKit/537.36 (KHTML, like Gecko) Chrome/74.0.3729.131 Safari/537.36"",""on_chrome"":true,""on_mobile"":false,""language"":""en-US"",""screen_resolution"":[1440,900],""platform"":""MacIntel"",""timezone"":""Europe/Berlin""}","6","4813.319999995501","","","1557932900012","18","","Forchheim","[]","Forchheim","true","false","5455.549999998766"
"","html-voicekey-response","91","450664","0.0-4.87-0.87","nk6aqkf3bjlan4c","{""user_agent"":""Mozilla/5.0 (Macintosh; Intel Mac OS X 10_14_4) AppleWebKit/537.36 (KHTML, like Gecko) Chrome/74.0.3729.131 Safari/537.36"",""on_chrome"":true,""on_mobile"":false,""language"":""en-US"",""screen_resolution"":[1440,900],""platform"":""MacIntel"",""timezone"":""Europe/Berlin""}","6","1772.6499999933644","","","1557932906070","1","","Magdeburg","[]","Magdeburg","true","false","2605.6549999921117"
"","html-voicekey-response","92","465714","0.0-4.88-0.88","nk6aqkf3bjlan4c","{""user_agent"":""Mozilla/5.0 (Macintosh; Intel Mac OS X 10_14_4) AppleWebKit/537.36 (KHTML, like Gecko) Chrome/74.0.3729.131 Safari/537.36"",""on_chrome"":true,""on_mobile"":false,""language"":""en-US"",""screen_resolution"":[1440,900],""platform"":""MacIntel"",""timezone"":""Europe/Berlin""}","6","10071.854999996349","","","1557932909277","21","","","[]","Konstanz","false","false","11047.904999999446"
"","html-voicekey-response","93","479787","0.0-4.89-0.89","nk6aqkf3bjlan4c","{""user_agent"":""Mozilla/5.0 (Macintosh; Intel Mac OS X 10_14_4) AppleWebKit/537.36 (KHTML, like Gecko) Chrome/74.0.3729.131 Safari/537.36"",""on_chrome"":true,""on_mobile"":false,""language"":""en-US"",""screen_resolution"":[1440,900],""platform"":""MacIntel"",""timezone"":""Europe/Berlin""}","6","9244.385000007087","","","1557932924327","22","","","[]","Bamberg","false","false","10070.430000007036"
"","html-voicekey-response","94","487698","0.0-4.90-0.90","nk6aqkf3bjlan4c","{""user_agent"":""Mozilla/5.0 (Macintosh; Intel Mac OS X 10_14_4) AppleWebKit/537.36 (KHTML, like Gecko) Chrome/74.0.3729.131 Safari/537.36"",""on_chrome"":true,""on_mobile"":false,""language"":""en-US"",""screen_resolution"":[1440,900],""platform"":""MacIntel"",""timezone"":""Europe/Berlin""}","6","6546.400000000931","","","1557932938402","18","","Forchheim","[]","Forchheim","true","false","7306.110000004992"
"","html-voicekey-response","95","501427","0.0-4.91-0.91","nk6aqkf3bjlan4c","{""user_agent"":""Mozilla/5.0 (Macintosh; Intel Mac OS X 10_14_4) AppleWebKit/537.36 (KHTML, like Gecko) Chrome/74.0.3729.131 Safari/537.36"",""on_chrome"":true,""on_mobile"":false,""language"":""en-US"",""screen_resolution"":[1440,900],""platform"":""MacIntel"",""timezone"":""Europe/Berlin""}","6","8732.190000004111","","","1557932946311","25","","","[]","Osnabrück","false","false","9724.74499999953"
"","html-voicekey-response","96","507381","0.0-4.92-0.92","nk6aqkf3bjlan4c","{""user_agent"":""Mozilla/5.0 (Macintosh; Intel Mac OS X 10_14_4) AppleWebKit/537.36 (KHTML, like Gecko) Chrome/74.0.3729.131 Safari/537.36"",""on_chrome"":true,""on_mobile"":false,""language"":""en-US"",""screen_resolution"":[1440,900],""platform"":""MacIntel"",""timezone"":""Europe/Berlin""}","6","4676.209999999473","","","1557932960040","21","","Konstanz","[]","Konstanz","true","false","5352.0850000059"
"","html-voicekey-response","97","509971","0.0-4.93-0.93","nk6aqkf3bjlan4c","{""user_agent"":""Mozilla/5.0 (Macintosh; Intel Mac OS X 10_14_4) AppleWebKit/537.36 (KHTML, like Gecko) Chrome/74.0.3729.131 Safari/537.36"",""on_chrome"":true,""on_mobile"":false,""language"":""en-US"",""screen_resolution"":[1440,900],""platform"":""MacIntel"",""timezone"":""Europe/Berlin""}","6","1412.2300000106684","","","1557932965994","10","","Heidelberg","[]","Heidelberg","true","false","1987.8400000015972"
"","html-voicekey-response","98","512187","0.0-4.94-0.94","nk6aqkf3bjlan4c","{""user_agent"":""Mozilla/5.0 (Macintosh; Intel Mac OS X 10_14_4) AppleWebKit/537.36 (KHTML, like Gecko) Chrome/74.0.3729.131 Safari/537.36"",""on_chrome"":true,""on_mobile"":false,""language"":""en-US"",""screen_resolution"":[1440,900],""platform"":""MacIntel"",""timezone"":""Europe/Berlin""}","6","1004.829999999702","","","1557932968585","2","","Berlin","[]","Berlin","true","false","1613.534999996773"
"","html-voicekey-response","99","515653","0.0-4.95-0.95","nk6aqkf3bjlan4c","{""user_agent"":""Mozilla/5.0 (Macintosh; Intel Mac OS X 10_14_4) AppleWebKit/537.36 (KHTML, like Gecko) Chrome/74.0.3729.131 Safari/537.36"",""on_chrome"":true,""on_mobile"":false,""language"":""en-US"",""screen_resolution"":[1440,900],""platform"":""MacIntel"",""timezone"":""Europe/Berlin""}","6","1972.4450000010897","","","1557932970801","8","","Gotha","[]","Gotha","true","false","2863.710000005085"
"","html-voicekey-response","100","518904","0.0-4.96-0.96","nk6aqkf3bjlan4c","{""user_agent"":""Mozilla/5.0 (Macintosh; Intel Mac OS X 10_14_4) AppleWebKit/537.36 (KHTML, like Gecko) Chrome/74.0.3729.131 Safari/537.36"",""on_chrome"":true,""on_mobile"":false,""language"":""en-US"",""screen_resolution"":[1440,900],""platform"":""MacIntel"",""timezone"":""Europe/Berlin""}","6","Infinity","","","1557932974268","22","","Bamberg","[]","Bamberg","true","false","2647.659999987809"
"","html-voicekey-response","101","522510","0.0-4.97-0.97","nk6aqkf3bjlan4c","{""user_agent"":""Mozilla/5.0 (Macintosh; Intel Mac OS X 10_14_4) AppleWebKit/537.36 (KHTML, like Gecko) Chrome/74.0.3729.131 Safari/537.36"",""on_chrome"":true,""on_mobile"":false,""language"":""en-US"",""screen_resolution"":[1440,900],""platform"":""MacIntel"",""timezone"":""Europe/Berlin""}","6","2278.3300000099466","","","1557932977518","11","","Alfeld","[]","Alfeld","true","false","3003.610000014305"
"","html-voicekey-response","102","530760","0.0-4.98-0.98","nk6aqkf3bjlan4c","{""user_agent"":""Mozilla/5.0 (Macintosh; Intel Mac OS X 10_14_4) AppleWebKit/537.36 (KHTML, like Gecko) Chrome/74.0.3729.131 Safari/537.36"",""on_chrome"":true,""on_mobile"":false,""language"":""en-US"",""screen_resolution"":[1440,900],""platform"":""MacIntel"",""timezone"":""Europe/Berlin""}","6","3288.1799999975833","","","1557932981123","18","","","[]","Forchheim","false","false","4248.2099999906495"
"","html-voicekey-response","103","536835","0.0-4.99-0.99","nk6aqkf3bjlan4c","{""user_agent"":""Mozilla/5.0 (Macintosh; Intel Mac OS X 10_14_4) AppleWebKit/537.36 (KHTML, like Gecko) Chrome/74.0.3729.131 Safari/537.36"",""on_chrome"":true,""on_mobile"":false,""language"":""en-US"",""screen_resolution"":[1440,900],""platform"":""MacIntel"",""timezone"":""Europe/Berlin""}","6","4804.955000008549","","","1557932989374","21","","Konstanz","[]","Konstanz","true","false","5471.410000012838"
"","html-voicekey-response","104","545684","0.0-4.100-0.100","nk6aqkf3bjlan4c","{""user_agent"":""Mozilla/5.0 (Macintosh; Intel Mac OS X 10_14_4) AppleWebKit/537.36 (KHTML, like Gecko) Chrome/74.0.3729.131 Safari/537.36"",""on_chrome"":true,""on_mobile"":false,""language"":""en-US"",""screen_resolution"":[1440,900],""platform"":""MacIntel"",""timezone"":""Europe/Berlin""}","6","3387.719999993197","","","1557932995449","25","","","[]","Osnabrück","false","false","4846.4550000062445"
"","html-voicekey-response","105","560180","0.0-4.101-0.101","nk6aqkf3bjlan4c","{""user_agent"":""Mozilla/5.0 (Macintosh; Intel Mac OS X 10_14_4) AppleWebKit/537.36 (KHTML, like Gecko) Chrome/74.0.3729.131 Safari/537.36"",""on_chrome"":true,""on_mobile"":false,""language"":""en-US"",""screen_resolution"":[1440,900],""platform"":""MacIntel"",""timezone"":""Europe/Berlin""}","6","9832.56499999864","","","1557933004298","3","","","[]","Ingolstadt","false","false","10492.530000003171"
"","html-voicekey-response","106","563102","0.0-4.102-0.102","nk6aqkf3bjlan4c","{""user_agent"":""Mozilla/5.0 (Macintosh; Intel Mac OS X 10_14_4) AppleWebKit/537.36 (KHTML, like Gecko) Chrome/74.0.3729.131 Safari/537.36"",""on_chrome"":true,""on_mobile"":false,""language"":""en-US"",""screen_resolution"":[1440,900],""platform"":""MacIntel"",""timezone"":""Europe/Berlin""}","6","1693.680000005616","","","1557933018794","22","","Bamberg","[]","Bamberg","true","false","2319.2399999970803"
"","html-voicekey-response","107","566252","0.0-4.103-0.103","nk6aqkf3bjlan4c","{""user_agent"":""Mozilla/5.0 (Macintosh; Intel Mac OS X 10_14_4) AppleWebKit/537.36 (KHTML, like Gecko) Chrome/74.0.3729.131 Safari/537.36"",""on_chrome"":true,""on_mobile"":false,""language"":""en-US"",""screen_resolution"":[1440,900],""platform"":""MacIntel"",""timezone"":""Europe/Berlin""}","6","2037.5500000025845","","","1557933021716","5","","Aachen","[]","Aachen","true","false","2547.870000009425"
"","html-voicekey-response","108","568891","0.0-4.104-0.104","nk6aqkf3bjlan4c","{""user_agent"":""Mozilla/5.0 (Macintosh; Intel Mac OS X 10_14_4) AppleWebKit/537.36 (KHTML, like Gecko) Chrome/74.0.3729.131 Safari/537.36"",""on_chrome"":true,""on_mobile"":false,""language"":""en-US"",""screen_resolution"":[1440,900],""platform"":""MacIntel"",""timezone"":""Europe/Berlin""}","6","1294.9349999924657","","","1557933024866","6","","Dresden","[]","Dresden","true","false","2036.8199999938952"
"","html-voicekey-response","109","576858","0.0-4.105-0.105","nk6aqkf3bjlan4c","{""user_agent"":""Mozilla/5.0 (Macintosh; Intel Mac OS X 10_14_4) AppleWebKit/537.36 (KHTML, like Gecko) Chrome/74.0.3729.131 Safari/537.36"",""on_chrome"":true,""on_mobile"":false,""language"":""en-US"",""screen_resolution"":[1440,900],""platform"":""MacIntel"",""timezone"":""Europe/Berlin""}","6","6821.770000003953","","","1557933027505","25","","Osnabrück","[]","Osnabrück","true","false","7364.430000001448"
"","html-voicekey-response","110","580749","0.0-4.106-0.106","nk6aqkf3bjlan4c","{""user_agent"":""Mozilla/5.0 (Macintosh; Intel Mac OS X 10_14_4) AppleWebKit/537.36 (KHTML, like Gecko) Chrome/74.0.3729.131 Safari/537.36"",""on_chrome"":true,""on_mobile"":false,""language"":""en-US"",""screen_resolution"":[1440,900],""platform"":""MacIntel"",""timezone"":""Europe/Berlin""}","6","2545.655000003381","","","1557933035472","7","","Erfurt","[]","Erfurt","true","false","3288.9149999973597"
"","html-voicekey-response","111","583465","0.0-4.107-0.107","nk6aqkf3bjlan4c","{""user_agent"":""Mozilla/5.0 (Macintosh; Intel Mac OS X 10_14_4) AppleWebKit/537.36 (KHTML, like Gecko) Chrome/74.0.3729.131 Safari/537.36"",""on_chrome"":true,""on_mobile"":false,""language"":""en-US"",""screen_resolution"":[1440,900],""platform"":""MacIntel"",""timezone"":""Europe/Berlin""}","6","1238.4249999975787","","","1557933039363","21","","Konstanz","[]","Konstanz","true","false","2113.6100000003353"
"","html-voicekey-response","112","586999","0.0-4.108-0.108","nk6aqkf3bjlan4c","{""user_agent"":""Mozilla/5.0 (Macintosh; Intel Mac OS X 10_14_4) AppleWebKit/537.36 (KHTML, like Gecko) Chrome/74.0.3729.131 Safari/537.36"",""on_chrome"":true,""on_mobile"":false,""language"":""en-US"",""screen_resolution"":[1440,900],""platform"":""MacIntel"",""timezone"":""Europe/Berlin""}","6","2206.1649999903516","","","1557933042079","14","","Potsdam","[]","Potsdam","true","false","2931.2499999941792"
"","html-voicekey-response","113","591874","0.0-4.109-0.109","nk6aqkf3bjlan4c","{""user_agent"":""Mozilla/5.0 (Macintosh; Intel Mac OS X 10_14_4) AppleWebKit/537.36 (KHTML, like Gecko) Chrome/74.0.3729.131 Safari/537.36"",""on_chrome"":true,""on_mobile"":false,""language"":""en-US"",""screen_resolution"":[1440,900],""platform"":""MacIntel"",""timezone"":""Europe/Berlin""}","6","3462.33999999261","","","1557933045613","18","","Forchheim","[]","Forchheim","true","false","4271.454999994603"
"","html-voicekey-response","114","603640","0.0-4.110-0.110","nk6aqkf3bjlan4c","{""user_agent"":""Mozilla/5.0 (Macintosh; Intel Mac OS X 10_14_4) AppleWebKit/537.36 (KHTML, like Gecko) Chrome/74.0.3729.131 Safari/537.36"",""on_chrome"":true,""on_mobile"":false,""language"":""en-US"",""screen_resolution"":[1440,900],""platform"":""MacIntel"",""timezone"":""Europe/Berlin""}","6","10503.374999994621","","","1557933050488","3","","Ingolstadt","[]","Ingolstadt","true","false","11163.035000005038"
"","html-voicekey-response","115","615587","0.0-4.111-0.111","nk6aqkf3bjlan4c","{""user_agent"":""Mozilla/5.0 (Macintosh; Intel Mac OS X 10_14_4) AppleWebKit/537.36 (KHTML, like Gecko) Chrome/74.0.3729.131 Safari/537.36"",""on_chrome"":true,""on_mobile"":false,""language"":""en-US"",""screen_resolution"":[1440,900],""platform"":""MacIntel"",""timezone"":""Europe/Berlin""}","6","7236.174999992572","","","1557933062254","15","","","[]","Nürnberg","false","false","7944.294999993872"
"","html-voicekey-response","116","618861","0.0-4.112-0.112","nk6aqkf3bjlan4c","{""user_agent"":""Mozilla/5.0 (Macintosh; Intel Mac OS X 10_14_4) AppleWebKit/537.36 (KHTML, like Gecko) Chrome/74.0.3729.131 Safari/537.36"",""on_chrome"":true,""on_mobile"":false,""language"":""en-US"",""screen_resolution"":[1440,900],""platform"":""MacIntel"",""timezone"":""Europe/Berlin""}","6","2072.8649999890245","","","1557933074201","18","","Forchheim","[]","Forchheim","true","false","2671.71499998949"
"","html-voicekey-response","117","621694","0.0-4.113-0.113","nk6aqkf3bjlan4c","{""user_agent"":""Mozilla/5.0 (Macintosh; Intel Mac OS X 10_14_4) AppleWebKit/537.36 (KHTML, like Gecko) Chrome/74.0.3729.131 Safari/537.36"",""on_chrome"":true,""on_mobile"":false,""language"":""en-US"",""screen_resolution"":[1440,900],""platform"":""MacIntel"",""timezone"":""Europe/Berlin""}","6","1372.1500000045403","","","1557933077475","9","","München","[]","München","true","false","2230.0800000084564"
"","html-voicekey-response","118","631979","0.0-4.114-0.114","nk6aqkf3bjlan4c","{""user_agent"":""Mozilla/5.0 (Macintosh; Intel Mac OS X 10_14_4) AppleWebKit/537.36 (KHTML, like Gecko) Chrome/74.0.3729.131 Safari/537.36"",""on_chrome"":true,""on_mobile"":false,""language"":""en-US"",""screen_resolution"":[1440,900],""platform"":""MacIntel"",""timezone"":""Europe/Berlin""}","6","4905.314999990724","","","1557933080308","25","","","[]","Osnabrück","false","false","6280.885000000126"
"","html-voicekey-response","119","634806","0.0-4.115-0.115","nk6aqkf3bjlan4c","{""user_agent"":""Mozilla/5.0 (Macintosh; Intel Mac OS X 10_14_4) AppleWebKit/537.36 (KHTML, like Gecko) Chrome/74.0.3729.131 Safari/537.36"",""on_chrome"":true,""on_mobile"":false,""language"":""en-US"",""screen_resolution"":[1440,900],""platform"":""MacIntel"",""timezone"":""Europe/Berlin""}","6","1697.985000000545","","","1557933090594","12","","Dessau","[]","Dessau","true","false","2223.1699999974808"
"","html-voicekey-response","120","638791","0.0-4.116-0.116","nk6aqkf3bjlan4c","{""user_agent"":""Mozilla/5.0 (Macintosh; Intel Mac OS X 10_14_4) AppleWebKit/537.36 (KHTML, like Gecko) Chrome/74.0.3729.131 Safari/537.36"",""on_chrome"":true,""on_mobile"":false,""language"":""en-US"",""screen_resolution"":[1440,900],""platform"":""MacIntel"",""timezone"":""Europe/Berlin""}","6","2720.655000006291","","","1557933093420","11","","Alfeld","[]","Alfeld","true","false","3380.0699999992503"
"","html-voicekey-response","121","641380","0.0-4.117-0.117","nk6aqkf3bjlan4c","{""user_agent"":""Mozilla/5.0 (Macintosh; Intel Mac OS X 10_14_4) AppleWebKit/537.36 (KHTML, like Gecko) Chrome/74.0.3729.131 Safari/537.36"",""on_chrome"":true,""on_mobile"":false,""language"":""en-US"",""screen_resolution"":[1440,900],""platform"":""MacIntel"",""timezone"":""Europe/Berlin""}","6","1327.3299999944634","","","1557933097405","13","","Chemnitz","[]","Chemnitz","true","false","1986.92999999912"
"","html-voicekey-response","122","645180","0.0-4.118-0.118","nk6aqkf3bjlan4c","{""user_agent"":""Mozilla/5.0 (Macintosh; Intel Mac OS X 10_14_4) AppleWebKit/537.36 (KHTML, like Gecko) Chrome/74.0.3729.131 Safari/537.36"",""on_chrome"":true,""on_mobile"":false,""language"":""en-US"",""screen_resolution"":[1440,900],""platform"":""MacIntel"",""timezone"":""Europe/Berlin""}","6","2421.635000000452","","","1557933099995","21","","Konstanz","[]","Konstanz","true","false","3196.704999994836"
"","html-voicekey-response","123","650114","0.0-4.119-0.119","nk6aqkf3bjlan4c","{""user_agent"":""Mozilla/5.0 (Macintosh; Intel Mac OS X 10_14_4) AppleWebKit/537.36 (KHTML, like Gecko) Chrome/74.0.3729.131 Safari/537.36"",""on_chrome"":true,""on_mobile"":false,""language"":""en-US"",""screen_resolution"":[1440,900],""platform"":""MacIntel"",""timezone"":""Europe/Berlin""}","6","1838.2899999940769","","","1557933103794","16","","Schwangau","[]","Schwangau","true","false","4330.9750000044005"
"","html-voicekey-response","124","652886","0.0-4.120-0.120","nk6aqkf3bjlan4c","{""user_agent"":""Mozilla/5.0 (Macintosh; Intel Mac OS X 10_14_4) AppleWebKit/537.36 (KHTML, like Gecko) Chrome/74.0.3729.131 Safari/537.36"",""on_chrome"":true,""on_mobile"":false,""language"":""en-US"",""screen_resolution"":[1440,900],""platform"":""MacIntel"",""timezone"":""Europe/Berlin""}","6","Infinity","","","1557933108728","4","","Würzburg","[]","Würzburg","true","false","2169.4900000002235"
"","html-voicekey-response","125","656753","0.0-4.121-0.121","nk6aqkf3bjlan4c","{""user_agent"":""Mozilla/5.0 (Macintosh; Intel Mac OS X 10_14_4) AppleWebKit/537.36 (KHTML, like Gecko) Chrome/74.0.3729.131 Safari/537.36"",""on_chrome"":true,""on_mobile"":false,""language"":""en-US"",""screen_resolution"":[1440,900],""platform"":""MacIntel"",""timezone"":""Europe/Berlin""}","6","2573.5099999963772","","","1557933111500","18","","Forchheim","[]","Forchheim","true","false","3264.194999996107"
"","html-voicekey-response","126","659937","0.0-4.122-0.122","nk6aqkf3bjlan4c","{""user_agent"":""Mozilla/5.0 (Macintosh; Intel Mac OS X 10_14_4) AppleWebKit/537.36 (KHTML, like Gecko) Chrome/74.0.3729.131 Safari/537.36"",""on_chrome"":true,""on_mobile"":false,""language"":""en-US"",""screen_resolution"":[1440,900],""platform"":""MacIntel"",""timezone"":""Europe/Berlin""}","6","1805.7950000018814","","","1557933115367","22","","Bamberg","[]","Bamberg","true","false","2581.8100000033155"
"","html-voicekey-response","127","662380","0.0-4.123-0.123","nk6aqkf3bjlan4c","{""user_agent"":""Mozilla/5.0 (Macintosh; Intel Mac OS X 10_14_4) AppleWebKit/537.36 (KHTML, like Gecko) Chrome/74.0.3729.131 Safari/537.36"",""on_chrome"":true,""on_mobile"":false,""language"":""en-US"",""screen_resolution"":[1440,900],""platform"":""MacIntel"",""timezone"":""Europe/Berlin""}","6","1288.330000004708","","","1557933118551","17","","Leipzig","[]","Leipzig","true","false","1839.590000003227"
"","html-voicekey-response","128","666394","0.0-4.124-0.124","nk6aqkf3bjlan4c","{""user_agent"":""Mozilla/5.0 (Macintosh; Intel Mac OS X 10_14_4) AppleWebKit/537.36 (KHTML, like Gecko) Chrome/74.0.3729.131 Safari/537.36"",""on_chrome"":true,""on_mobile"":false,""language"":""en-US"",""screen_resolution"":[1440,900],""platform"":""MacIntel"",""timezone"":""Europe/Berlin""}","6","2336.795000004559","","","1557933120994","3","","Ingolstadt","[]","Ingolstadt","true","false","3411.470000006375"
"","html-voicekey-response","129","669729","0.0-4.125-0.125","nk6aqkf3bjlan4c","{""user_agent"":""Mozilla/5.0 (Macintosh; Intel Mac OS X 10_14_4) AppleWebKit/537.36 (KHTML, like Gecko) Chrome/74.0.3729.131 Safari/537.36"",""on_chrome"":true,""on_mobile"":false,""language"":""en-US"",""screen_resolution"":[1440,900],""platform"":""MacIntel"",""timezone"":""Europe/Berlin""}","6","1537.8699999945006","","","1557933125009","26","","Freiburg","[]","Freiburg","true","true","2730.779999998049"
"","html-voicekey-response","130","672647","0.0-4.126-0.126","nk6aqkf3bjlan4c","{""user_agent"":""Mozilla/5.0 (Macintosh; Intel Mac OS X 10_14_4) AppleWebKit/537.36 (KHTML, like Gecko) Chrome/74.0.3729.131 Safari/537.36"",""on_chrome"":true,""on_mobile"":false,""language"":""en-US"",""screen_resolution"":[1440,900],""platform"":""MacIntel"",""timezone"":""Europe/Berlin""}","6","1303.4750000022818","","","1557933128343","27","","Tübingen","[]","Tübingen","true","true","2313.0099999980303"
"","html-voicekey-response","131","675168","0.0-4.127-0.127","nk6aqkf3bjlan4c","{""user_agent"":""Mozilla/5.0 (Macintosh; Intel Mac OS X 10_14_4) AppleWebKit/537.36 (KHTML, like Gecko) Chrome/74.0.3729.131 Safari/537.36"",""on_chrome"":true,""on_mobile"":false,""language"":""en-US"",""screen_resolution"":[1440,900],""platform"":""MacIntel"",""timezone"":""Europe/Berlin""}","6","1124.4450000029524","","","1557933131262","26","","Freiburg","[]","Freiburg","true","false","1916.9499999989057"
"","html-voicekey-response","132","677701","0.0-4.128-0.128","nk6aqkf3bjlan4c","{""user_agent"":""Mozilla/5.0 (Macintosh; Intel Mac OS X 10_14_4) AppleWebKit/537.36 (KHTML, like Gecko) Chrome/74.0.3729.131 Safari/537.36"",""on_chrome"":true,""on_mobile"":false,""language"":""en-US"",""screen_resolution"":[1440,900],""platform"":""MacIntel"",""timezone"":""Europe/Berlin""}","6","1104.0200000077953","","","1557933133783","27","","Tübingen","[]","Tübingen","true","false","1929.889999999432"
"","html-voicekey-response","133","695001","0.0-4.129-0.129","nk6aqkf3bjlan4c","{""user_agent"":""Mozilla/5.0 (Macintosh; Intel Mac OS X 10_14_4) AppleWebKit/537.36 (KHTML, like Gecko) Chrome/74.0.3729.131 Safari/537.36"",""on_chrome"":true,""on_mobile"":false,""language"":""en-US"",""screen_resolution"":[1440,900],""platform"":""MacIntel"",""timezone"":""Europe/Berlin""}","6","9871.30500000224","","","1557933136316","25","","","[]","Osnabrück","false","false","13296.419999998761"
"","html-voicekey-response","134","698217","0.0-4.130-0.130","nk6aqkf3bjlan4c","{""user_agent"":""Mozilla/5.0 (Macintosh; Intel Mac OS X 10_14_4) AppleWebKit/537.36 (KHTML, like Gecko) Chrome/74.0.3729.131 Safari/537.36"",""on_chrome"":true,""on_mobile"":false,""language"":""en-US"",""screen_resolution"":[1440,900],""platform"":""MacIntel"",""timezone"":""Europe/Berlin""}","6","2003.2350000054344","","","1557933153616","18","","Forchheim","[]","Forchheim","true","false","2612.0999999984633"
"","html-voicekey-response","135","700789","0.0-4.131-0.131","nk6aqkf3bjlan4c","{""user_agent"":""Mozilla/5.0 (Macintosh; Intel Mac OS X 10_14_4) AppleWebKit/537.36 (KHTML, like Gecko) Chrome/74.0.3729.131 Safari/537.36"",""on_chrome"":true,""on_mobile"":false,""language"":""en-US"",""screen_resolution"":[1440,900],""platform"":""MacIntel"",""timezone"":""Europe/Berlin""}","6","1320.8350000002888","","","1557933156832","25","","Osnabrück","[]","Osnabrück","true","false","1969.3000000115717"
"","html-voicekey-response","136","713640","0.0-4.132-0.132","nk6aqkf3bjlan4c","{""user_agent"":""Mozilla/5.0 (Macintosh; Intel Mac OS X 10_14_4) AppleWebKit/537.36 (KHTML, like Gecko) Chrome/74.0.3729.131 Safari/537.36"",""on_chrome"":true,""on_mobile"":false,""language"":""en-US"",""screen_resolution"":[1440,900],""platform"":""MacIntel"",""timezone"":""Europe/Berlin""}","6","7837.12499999986","","","1557933159404","15","","","[]","Nürnberg","false","false","8845.509999999194"
"","html-voicekey-response","137","716830","0.0-4.133-0.133","nk6aqkf3bjlan4c","{""user_agent"":""Mozilla/5.0 (Macintosh; Intel Mac OS X 10_14_4) AppleWebKit/537.36 (KHTML, like Gecko) Chrome/74.0.3729.131 Safari/537.36"",""on_chrome"":true,""on_mobile"":false,""language"":""en-US"",""screen_resolution"":[1440,900],""platform"":""MacIntel"",""timezone"":""Europe/Berlin""}","6","1443.8849999949803","","","1557933172254","21","","Konstanz","[]","Konstanz","true","false","2587.274999998044"
"","html-voicekey-response","138","719713","0.0-4.134-0.134","nk6aqkf3bjlan4c","{""user_agent"":""Mozilla/5.0 (Macintosh; Intel Mac OS X 10_14_4) AppleWebKit/537.36 (KHTML, like Gecko) Chrome/74.0.3729.131 Safari/537.36"",""on_chrome"":true,""on_mobile"":false,""language"":""en-US"",""screen_resolution"":[1440,900],""platform"":""MacIntel"",""timezone"":""Europe/Berlin""}","6","1270.7049999970245","","","1557933175445","19","","Frankfurt","[]","Frankfurt","true","false","2279.679999992368"
"","html-voicekey-response","139","722186","0.0-4.135-0.135","nk6aqkf3bjlan4c","{""user_agent"":""Mozilla/5.0 (Macintosh; Intel Mac OS X 10_14_4) AppleWebKit/537.36 (KHTML, like Gecko) Chrome/74.0.3729.131 Safari/537.36"",""on_chrome"":true,""on_mobile"":false,""language"":""en-US"",""screen_resolution"":[1440,900],""platform"":""MacIntel"",""timezone"":""Europe/Berlin""}","6","1210.3700000096346","","","1557933178328","20","","Hamburg ","[]","Hamburg ","true","false","1869.0200000128243"
"","html-voicekey-response","140","737502","0.0-4.136-0.136","nk6aqkf3bjlan4c","{""user_agent"":""Mozilla/5.0 (Macintosh; Intel Mac OS X 10_14_4) AppleWebKit/537.36 (KHTML, like Gecko) Chrome/74.0.3729.131 Safari/537.36"",""on_chrome"":true,""on_mobile"":false,""language"":""en-US"",""screen_resolution"":[1440,900],""platform"":""MacIntel"",""timezone"":""Europe/Berlin""}","6","9554.629999993113","","","1557933180800","26","","","[]","Freiburg","false","false","11312.565000000177"
"","html-voicekey-response","141","748330","0.0-4.137-0.137","nk6aqkf3bjlan4c","{""user_agent"":""Mozilla/5.0 (Macintosh; Intel Mac OS X 10_14_4) AppleWebKit/537.36 (KHTML, like Gecko) Chrome/74.0.3729.131 Safari/537.36"",""on_chrome"":true,""on_mobile"":false,""language"":""en-US"",""screen_resolution"":[1440,900],""platform"":""MacIntel"",""timezone"":""Europe/Berlin""}","6","6182.324999995972","","","1557933196117","27","","","[]","Tübingen","false","false","6824.139999996987"
"","html-voicekey-response","142","758036","0.0-4.138-0.138","nk6aqkf3bjlan4c","{""user_agent"":""Mozilla/5.0 (Macintosh; Intel Mac OS X 10_14_4) AppleWebKit/537.36 (KHTML, like Gecko) Chrome/74.0.3729.131 Safari/537.36"",""on_chrome"":true,""on_mobile"":false,""language"":""en-US"",""screen_resolution"":[1440,900],""platform"":""MacIntel"",""timezone"":""Europe/Berlin""}","6","8410.440000001317","","","1557933206945","18","","Forchheim","[]","Forchheim","true","false","9102.144999997108"
"","html-voicekey-response","143","760663","0.0-4.139-0.139","nk6aqkf3bjlan4c","{""user_agent"":""Mozilla/5.0 (Macintosh; Intel Mac OS X 10_14_4) AppleWebKit/537.36 (KHTML, like Gecko) Chrome/74.0.3729.131 Safari/537.36"",""on_chrome"":true,""on_mobile"":false,""language"":""en-US"",""screen_resolution"":[1440,900],""platform"":""MacIntel"",""timezone"":""Europe/Berlin""}","6","1198.9600000031992","","","1557933216651","25","","Osnabrück","[]","Osnabrück","true","false","2024.040000003879"
"","html-voicekey-response","144","764680","0.0-4.140-0.140","nk6aqkf3bjlan4c","{""user_agent"":""Mozilla/5.0 (Macintosh; Intel Mac OS X 10_14_4) AppleWebKit/537.36 (KHTML, like Gecko) Chrome/74.0.3729.131 Safari/537.36"",""on_chrome"":true,""on_mobile"":false,""language"":""en-US"",""screen_resolution"":[1440,900],""platform"":""MacIntel"",""timezone"":""Europe/Berlin""}","6","2321.8050000085263","","","1557933219278","11","","Alfeld","[]","Alfeld","true","false","3413.6900000012247"
"","html-voicekey-response","145","767597","0.0-4.141-0.141","nk6aqkf3bjlan4c","{""user_agent"":""Mozilla/5.0 (Macintosh; Intel Mac OS X 10_14_4) AppleWebKit/537.36 (KHTML, like Gecko) Chrome/74.0.3729.131 Safari/537.36"",""on_chrome"":true,""on_mobile"":false,""language"":""en-US"",""screen_resolution"":[1440,900],""platform"":""MacIntel"",""timezone"":""Europe/Berlin""}","6","1454.60000000624","","","1557933223295","4","","Würzburg","[]","Würzburg","true","false","2313.4750000026543"
"","html-voicekey-response","146","778654","0.0-4.142-0.142","nk6aqkf3bjlan4c","{""user_agent"":""Mozilla/5.0 (Macintosh; Intel Mac OS X 10_14_4) AppleWebKit/537.36 (KHTML, like Gecko) Chrome/74.0.3729.131 Safari/537.36"",""on_chrome"":true,""on_mobile"":false,""language"":""en-US"",""screen_resolution"":[1440,900],""platform"":""MacIntel"",""timezone"":""Europe/Berlin""}","6","6295.0250000083815","","","1557933226212","10","","","[]","Heidelberg","false","false","7052.779999998165"
"","html-voicekey-response","147","782795","0.0-4.143-0.143","nk6aqkf3bjlan4c","{""user_agent"":""Mozilla/5.0 (Macintosh; Intel Mac OS X 10_14_4) AppleWebKit/537.36 (KHTML, like Gecko) Chrome/74.0.3729.131 Safari/537.36"",""on_chrome"":true,""on_mobile"":false,""language"":""en-US"",""screen_resolution"":[1440,900],""platform"":""MacIntel"",""timezone"":""Europe/Berlin""}","6","2138.614999997872","","","1557933237268","26","","Freiburg","[]","Freiburg","true","false","3538.0650000006426"
"","html-voicekey-response","148","785344","0.0-4.144-0.144","nk6aqkf3bjlan4c","{""user_agent"":""Mozilla/5.0 (Macintosh; Intel Mac OS X 10_14_4) AppleWebKit/537.36 (KHTML, like Gecko) Chrome/74.0.3729.131 Safari/537.36"",""on_chrome"":true,""on_mobile"":false,""language"":""en-US"",""screen_resolution"":[1440,900],""platform"":""MacIntel"",""timezone"":""Europe/Berlin""}","6","1386.3599999984494","","","1557933241410","23","","Stuttgart","[]","Stuttgart","true","false","1945.4299999924842"
"","html-voicekey-response","149","799478","0.0-4.145-0.145","nk6aqkf3bjlan4c","{""user_agent"":""Mozilla/5.0 (Macintosh; Intel Mac OS X 10_14_4) AppleWebKit/537.36 (KHTML, like Gecko) Chrome/74.0.3729.131 Safari/537.36"",""on_chrome"":true,""on_mobile"":false,""language"":""en-US"",""screen_resolution"":[1440,900],""platform"":""MacIntel"",""timezone"":""Europe/Berlin""}","6","9338.145000010472","","","1557933243959","27","","","[]","Tübingen","false","false","10130.050000007031"
