"value","trial_type","trial_index","time_elapsed","internal_node_id","subject","browser_info","participant_number","rt","responses","view_history","presentation_start_time","id","text","response","keypresses","answer","correct","study","experimenter_rt"
"","call-function","0","9","0.0-0.0","0d374y31d51kj4l","{""user_agent"":""Mozilla/5.0 (Macintosh; Intel Mac OS X 10_14_4) AppleWebKit/537.36 (KHTML, like Gecko) Chrome/74.0.3729.131 Safari/537.36"",""on_chrome"":true,""on_mobile"":false,""language"":""en-US"",""screen_resolution"":[1440,900],""platform"":""MacIntel"",""timezone"":""Europe/Berlin""}","7","","","","","","","","","","","",""
"","survey-text","1","25234","0.0-1.0","0d374y31d51kj4l","{""user_agent"":""Mozilla/5.0 (Macintosh; Intel Mac OS X 10_14_4) AppleWebKit/537.36 (KHTML, like Gecko) Chrome/74.0.3729.131 Safari/537.36"",""on_chrome"":true,""on_mobile"":false,""language"":""en-US"",""screen_resolution"":[1440,900],""platform"":""MacIntel"",""timezone"":""Europe/Berlin""}","7","25223","{""Q0"":""7""}","","","","","","","","","",""
"","instructions","2","111212","0.0-2.0","0d374y31d51kj4l","{""user_agent"":""Mozilla/5.0 (Macintosh; Intel Mac OS X 10_14_4) AppleWebKit/537.36 (KHTML, like Gecko) Chrome/74.0.3729.131 Safari/537.36"",""on_chrome"":true,""on_mobile"":false,""language"":""en-US"",""screen_resolution"":[1440,900],""platform"":""MacIntel"",""timezone"":""Europe/Berlin""}","7","85978","","[{""page_index"":0,""viewing_time"":85978}]","","","","","","","","",""
"","call-function","3","111213","0.0-3.0","0d374y31d51kj4l","{""user_agent"":""Mozilla/5.0 (Macintosh; Intel Mac OS X 10_14_4) AppleWebKit/537.36 (KHTML, like Gecko) Chrome/74.0.3729.131 Safari/537.36"",""on_chrome"":true,""on_mobile"":false,""language"":""en-US"",""screen_resolution"":[1440,900],""platform"":""MacIntel"",""timezone"":""Europe/Berlin""}","7","","","","","","","","","","","",""
"","html-voicekey-response","4","114216","0.0-4.0-0.0","0d374y31d51kj4l","{""user_agent"":""Mozilla/5.0 (Macintosh; Intel Mac OS X 10_14_4) AppleWebKit/537.36 (KHTML, like Gecko) Chrome/74.0.3729.131 Safari/537.36"",""on_chrome"":true,""on_mobile"":false,""language"":""en-US"",""screen_resolution"":[1440,900],""platform"":""MacIntel"",""timezone"":""Europe/Berlin""}","7","1667.7899999998249","","","1557993785273","1","","Magdeburg","[]","Magdeburg","true","true","2399.5599999998376"
"","html-voicekey-response","5","119965","0.0-4.1-0.1","0d374y31d51kj4l","{""user_agent"":""Mozilla/5.0 (Macintosh; Intel Mac OS X 10_14_4) AppleWebKit/537.36 (KHTML, like Gecko) Chrome/74.0.3729.131 Safari/537.36"",""on_chrome"":true,""on_mobile"":false,""language"":""en-US"",""screen_resolution"":[1440,900],""platform"":""MacIntel"",""timezone"":""Europe/Berlin""}","7","4384.570000000012","","","1557993788278","1","","Magdeburg","[]","Magdeburg","true","false","5143.235000000001"
"","html-voicekey-response","6","123167","0.0-4.2-0.2","0d374y31d51kj4l","{""user_agent"":""Mozilla/5.0 (Macintosh; Intel Mac OS X 10_14_4) AppleWebKit/537.36 (KHTML, like Gecko) Chrome/74.0.3729.131 Safari/537.36"",""on_chrome"":true,""on_mobile"":false,""language"":""en-US"",""screen_resolution"":[1440,900],""platform"":""MacIntel"",""timezone"":""Europe/Berlin""}","7","1772.2649999999035","","","1557993794024","2","","Berlin","[]","Berlin","true","true","2597.8499999996566"
"","html-voicekey-response","7","128672","0.0-4.3-0.3","0d374y31d51kj4l","{""user_agent"":""Mozilla/5.0 (Macintosh; Intel Mac OS X 10_14_4) AppleWebKit/537.36 (KHTML, like Gecko) Chrome/74.0.3729.131 Safari/537.36"",""on_chrome"":true,""on_mobile"":false,""language"":""en-US"",""screen_resolution"":[1440,900],""platform"":""MacIntel"",""timezone"":""Europe/Berlin""}","7","4244.414999999955","","","1557993797226","2","","Berlin","[]","Berlin","true","false","4902.720000000045"
"","html-voicekey-response","8","131921","0.0-4.4-0.4","0d374y31d51kj4l","{""user_agent"":""Mozilla/5.0 (Macintosh; Intel Mac OS X 10_14_4) AppleWebKit/537.36 (KHTML, like Gecko) Chrome/74.0.3729.131 Safari/537.36"",""on_chrome"":true,""on_mobile"":false,""language"":""en-US"",""screen_resolution"":[1440,900],""platform"":""MacIntel"",""timezone"":""Europe/Berlin""}","7","1655.055000000028","","","1557993802731","3","","Ingolstadt","[]","Ingolstadt","true","true","2646.874999999898"
"","html-voicekey-response","9","135728","0.0-4.5-0.5","0d374y31d51kj4l","{""user_agent"":""Mozilla/5.0 (Macintosh; Intel Mac OS X 10_14_4) AppleWebKit/537.36 (KHTML, like Gecko) Chrome/74.0.3729.131 Safari/537.36"",""on_chrome"":true,""on_mobile"":false,""language"":""en-US"",""screen_resolution"":[1440,900],""platform"":""MacIntel"",""timezone"":""Europe/Berlin""}","7","2055.799999999936","","","1557993805981","4","","Würzburg","[]","Würzburg","true","true","3204.2249999999476"
"","html-voicekey-response","10","145895","0.0-4.6-0.6","0d374y31d51kj4l","{""user_agent"":""Mozilla/5.0 (Macintosh; Intel Mac OS X 10_14_4) AppleWebKit/537.36 (KHTML, like Gecko) Chrome/74.0.3729.131 Safari/537.36"",""on_chrome"":true,""on_mobile"":false,""language"":""en-US"",""screen_resolution"":[1440,900],""platform"":""MacIntel"",""timezone"":""Europe/Berlin""}","7","5188.925000000227","","","1557993809787","3","","","[]","Ingolstadt","false","false","6164.784999999945"
"","html-voicekey-response","11","166139","0.0-4.7-0.7","0d374y31d51kj4l","{""user_agent"":""Mozilla/5.0 (Macintosh; Intel Mac OS X 10_14_4) AppleWebKit/537.36 (KHTML, like Gecko) Chrome/74.0.3729.131 Safari/537.36"",""on_chrome"":true,""on_mobile"":false,""language"":""en-US"",""screen_resolution"":[1440,900],""platform"":""MacIntel"",""timezone"":""Europe/Berlin""}","7","8305.349999999953","","","1557993819954","4","","","[]","Würzburg","false","false","16242.360000000219"
"","html-voicekey-response","12","169233","0.0-4.8-0.8","0d374y31d51kj4l","{""user_agent"":""Mozilla/5.0 (Macintosh; Intel Mac OS X 10_14_4) AppleWebKit/537.36 (KHTML, like Gecko) Chrome/74.0.3729.131 Safari/537.36"",""on_chrome"":true,""on_mobile"":false,""language"":""en-US"",""screen_resolution"":[1440,900],""platform"":""MacIntel"",""timezone"":""Europe/Berlin""}","7","1883.6250000002387","","","1557993840198","1","","Magdeburg","[]","Magdeburg","true","false","2492.670000000071"
"","html-voicekey-response","13","171683","0.0-4.9-0.9","0d374y31d51kj4l","{""user_agent"":""Mozilla/5.0 (Macintosh; Intel Mac OS X 10_14_4) AppleWebKit/537.36 (KHTML, like Gecko) Chrome/74.0.3729.131 Safari/537.36"",""on_chrome"":true,""on_mobile"":false,""language"":""en-US"",""screen_resolution"":[1440,900],""platform"":""MacIntel"",""timezone"":""Europe/Berlin""}","7","1220.6549999999174","","","1557993843293","2","","Berlin","[]","Berlin","true","false","1846.8949999996694"
"","html-voicekey-response","14","175218","0.0-4.10-0.10","0d374y31d51kj4l","{""user_agent"":""Mozilla/5.0 (Macintosh; Intel Mac OS X 10_14_4) AppleWebKit/537.36 (KHTML, like Gecko) Chrome/74.0.3729.131 Safari/537.36"",""on_chrome"":true,""on_mobile"":false,""language"":""en-US"",""screen_resolution"":[1440,900],""platform"":""MacIntel"",""timezone"":""Europe/Berlin""}","7","2088.4300000000862","","","1557993845743","5","","Aachen","[]","Aachen","true","true","2930.595000000263"
"","html-voicekey-response","15","178257","0.0-4.11-0.11","0d374y31d51kj4l","{""user_agent"":""Mozilla/5.0 (Macintosh; Intel Mac OS X 10_14_4) AppleWebKit/537.36 (KHTML, like Gecko) Chrome/74.0.3729.131 Safari/537.36"",""on_chrome"":true,""on_mobile"":false,""language"":""en-US"",""screen_resolution"":[1440,900],""platform"":""MacIntel"",""timezone"":""Europe/Berlin""}","7","1276.575000000163","","","1557993849278","6","","Dresden","[]","Dresden","true","true","2436.2750000000233"
"","html-voicekey-response","16","182707","0.0-4.12-0.12","0d374y31d51kj4l","{""user_agent"":""Mozilla/5.0 (Macintosh; Intel Mac OS X 10_14_4) AppleWebKit/537.36 (KHTML, like Gecko) Chrome/74.0.3729.131 Safari/537.36"",""on_chrome"":true,""on_mobile"":false,""language"":""en-US"",""screen_resolution"":[1440,900],""platform"":""MacIntel"",""timezone"":""Europe/Berlin""}","7","3054.4800000000746","","","1557993852316","5","","Aachen","[]","Aachen","true","false","3847.8649999997288"
"","html-voicekey-response","17","185390","0.0-4.13-0.13","0d374y31d51kj4l","{""user_agent"":""Mozilla/5.0 (Macintosh; Intel Mac OS X 10_14_4) AppleWebKit/537.36 (KHTML, like Gecko) Chrome/74.0.3729.131 Safari/537.36"",""on_chrome"":true,""on_mobile"":false,""language"":""en-US"",""screen_resolution"":[1440,900],""platform"":""MacIntel"",""timezone"":""Europe/Berlin""}","7","1170.6700000002807","","","1557993856767","6","","Dresden","[]","Dresden","true","false","2080.1900000001187"
"","html-voicekey-response","18","193181","0.0-4.14-0.14","0d374y31d51kj4l","{""user_agent"":""Mozilla/5.0 (Macintosh; Intel Mac OS X 10_14_4) AppleWebKit/537.36 (KHTML, like Gecko) Chrome/74.0.3729.131 Safari/537.36"",""on_chrome"":true,""on_mobile"":false,""language"":""en-US"",""screen_resolution"":[1440,900],""platform"":""MacIntel"",""timezone"":""Europe/Berlin""}","7","2812.0849999998813","","","1557993859450","3","","","[]","Ingolstadt","false","false","3787.269999999815"
"","html-voicekey-response","19","196464","0.0-4.15-0.15","0d374y31d51kj4l","{""user_agent"":""Mozilla/5.0 (Macintosh; Intel Mac OS X 10_14_4) AppleWebKit/537.36 (KHTML, like Gecko) Chrome/74.0.3729.131 Safari/537.36"",""on_chrome"":true,""on_mobile"":false,""language"":""en-US"",""screen_resolution"":[1440,900],""platform"":""MacIntel"",""timezone"":""Europe/Berlin""}","7","100","","","1557993867240","7","","Erfurt","[]","Erfurt","true","true","2680.7950000002165"
"","html-voicekey-response","20","202825","0.0-4.16-0.16","0d374y31d51kj4l","{""user_agent"":""Mozilla/5.0 (Macintosh; Intel Mac OS X 10_14_4) AppleWebKit/537.36 (KHTML, like Gecko) Chrome/74.0.3729.131 Safari/537.36"",""on_chrome"":true,""on_mobile"":false,""language"":""en-US"",""screen_resolution"":[1440,900],""platform"":""MacIntel"",""timezone"":""Europe/Berlin""}","7","1584.3249999996683","","","1557993870524","4","","","[]","Würzburg","false","false","2358.6699999996345"
"","html-voicekey-response","21","206676","0.0-4.17-0.17","0d374y31d51kj4l","{""user_agent"":""Mozilla/5.0 (Macintosh; Intel Mac OS X 10_14_4) AppleWebKit/537.36 (KHTML, like Gecko) Chrome/74.0.3729.131 Safari/537.36"",""on_chrome"":true,""on_mobile"":false,""language"":""en-US"",""screen_resolution"":[1440,900],""platform"":""MacIntel"",""timezone"":""Europe/Berlin""}","7","2606.125000000093","","","1557993876885","7","","Erfurt","[]","Erfurt","true","false","3247.6800000004005"
"","html-voicekey-response","22","209934","0.0-4.18-0.18","0d374y31d51kj4l","{""user_agent"":""Mozilla/5.0 (Macintosh; Intel Mac OS X 10_14_4) AppleWebKit/537.36 (KHTML, like Gecko) Chrome/74.0.3729.131 Safari/537.36"",""on_chrome"":true,""on_mobile"":false,""language"":""en-US"",""screen_resolution"":[1440,900],""platform"":""MacIntel"",""timezone"":""Europe/Berlin""}","7","1780.770000000141","","","1557993880735","8","","Gotha","[]","Gotha","true","true","2655.0950000000885"
"","html-voicekey-response","23","212850","0.0-4.19-0.19","0d374y31d51kj4l","{""user_agent"":""Mozilla/5.0 (Macintosh; Intel Mac OS X 10_14_4) AppleWebKit/537.36 (KHTML, like Gecko) Chrome/74.0.3729.131 Safari/537.36"",""on_chrome"":true,""on_mobile"":false,""language"":""en-US"",""screen_resolution"":[1440,900],""platform"":""MacIntel"",""timezone"":""Europe/Berlin""}","7","1489.2949999996986","","","1557993883993","9","","München","[]","München","true","true","2314.2749999997322"
"","html-voicekey-response","24","220717","0.0-4.20-0.20","0d374y31d51kj4l","{""user_agent"":""Mozilla/5.0 (Macintosh; Intel Mac OS X 10_14_4) AppleWebKit/537.36 (KHTML, like Gecko) Chrome/74.0.3729.131 Safari/537.36"",""on_chrome"":true,""on_mobile"":false,""language"":""en-US"",""screen_resolution"":[1440,900],""platform"":""MacIntel"",""timezone"":""Europe/Berlin""}","7","2688.4499999999593","","","1557993886910","8","","","[]","Gotha","false","false","3863.695000000007"
"","html-voicekey-response","25","226240","0.0-4.21-0.21","0d374y31d51kj4l","{""user_agent"":""Mozilla/5.0 (Macintosh; Intel Mac OS X 10_14_4) AppleWebKit/537.36 (KHTML, like Gecko) Chrome/74.0.3729.131 Safari/537.36"",""on_chrome"":true,""on_mobile"":false,""language"":""en-US"",""screen_resolution"":[1440,900],""platform"":""MacIntel"",""timezone"":""Europe/Berlin""}","7","Infinity","","","1557993894777","9","","München","[]","München","true","false","4920.485000000102"
"","html-voicekey-response","26","234208","0.0-4.22-0.22","0d374y31d51kj4l","{""user_agent"":""Mozilla/5.0 (Macintosh; Intel Mac OS X 10_14_4) AppleWebKit/537.36 (KHTML, like Gecko) Chrome/74.0.3729.131 Safari/537.36"",""on_chrome"":true,""on_mobile"":false,""language"":""en-US"",""screen_resolution"":[1440,900],""platform"":""MacIntel"",""timezone"":""Europe/Berlin""}","7","2787.755000000127","","","1557993900300","5","","","[]","Aachen","false","false","3963.2750000000524"
"","html-voicekey-response","27","238099","0.0-4.23-0.23","0d374y31d51kj4l","{""user_agent"":""Mozilla/5.0 (Macintosh; Intel Mac OS X 10_14_4) AppleWebKit/537.36 (KHTML, like Gecko) Chrome/74.0.3729.131 Safari/537.36"",""on_chrome"":true,""on_mobile"":false,""language"":""en-US"",""screen_resolution"":[1440,900],""platform"":""MacIntel"",""timezone"":""Europe/Berlin""}","7","2224.2850000000967","","","1557993908273","3","","Ingolstadt","[]","Ingolstadt","true","false","3282.5850000003993"
"","html-voicekey-response","28","243032","0.0-4.24-0.24","0d374y31d51kj4l","{""user_agent"":""Mozilla/5.0 (Macintosh; Intel Mac OS X 10_14_4) AppleWebKit/537.36 (KHTML, like Gecko) Chrome/74.0.3729.131 Safari/537.36"",""on_chrome"":true,""on_mobile"":false,""language"":""en-US"",""screen_resolution"":[1440,900],""platform"":""MacIntel"",""timezone"":""Europe/Berlin""}","7","3571.274999999651","","","1557993912158","6","","Dresden","[]","Dresden","true","false","4330.25"
"","html-voicekey-response","29","248478","0.0-4.25-0.25","0d374y31d51kj4l","{""user_agent"":""Mozilla/5.0 (Macintosh; Intel Mac OS X 10_14_4) AppleWebKit/537.36 (KHTML, like Gecko) Chrome/74.0.3729.131 Safari/537.36"",""on_chrome"":true,""on_mobile"":false,""language"":""en-US"",""screen_resolution"":[1440,900],""platform"":""MacIntel"",""timezone"":""Europe/Berlin""}","7","3933.790000000334","","","1557993917092","4","","Würzburg","[]","Würzburg","true","false","4843.100000000064"
"","html-voicekey-response","30","251593","0.0-4.26-0.26","0d374y31d51kj4l","{""user_agent"":""Mozilla/5.0 (Macintosh; Intel Mac OS X 10_14_4) AppleWebKit/537.36 (KHTML, like Gecko) Chrome/74.0.3729.131 Safari/537.36"",""on_chrome"":true,""on_mobile"":false,""language"":""en-US"",""screen_resolution"":[1440,900],""platform"":""MacIntel"",""timezone"":""Europe/Berlin""}","7","1287.9100000003295","","","1557993922537","10","","Heidelberg","[]","Heidelberg","true","true","2513.255000000325"
"","html-voicekey-response","31","268641","0.0-4.27-0.27","0d374y31d51kj4l","{""user_agent"":""Mozilla/5.0 (Macintosh; Intel Mac OS X 10_14_4) AppleWebKit/537.36 (KHTML, like Gecko) Chrome/74.0.3729.131 Safari/537.36"",""on_chrome"":true,""on_mobile"":false,""language"":""en-US"",""screen_resolution"":[1440,900],""platform"":""MacIntel"",""timezone"":""Europe/Berlin""}","7","12354.825000000192","","","1557993925653","7","","","[]","Erfurt","false","false","13044.31500000009"
"","html-voicekey-response","32","290223","0.0-4.28-0.28","0d374y31d51kj4l","{""user_agent"":""Mozilla/5.0 (Macintosh; Intel Mac OS X 10_14_4) AppleWebKit/537.36 (KHTML, like Gecko) Chrome/74.0.3729.131 Safari/537.36"",""on_chrome"":true,""on_mobile"":false,""language"":""en-US"",""screen_resolution"":[1440,900],""platform"":""MacIntel"",""timezone"":""Europe/Berlin""}","7","16935.975000000188","","","1557993942701","10","","","[]","Heidelberg","false","false","17578.210000000137"
"","html-voicekey-response","33","305926","0.0-4.29-0.29","0d374y31d51kj4l","{""user_agent"":""Mozilla/5.0 (Macintosh; Intel Mac OS X 10_14_4) AppleWebKit/537.36 (KHTML, like Gecko) Chrome/74.0.3729.131 Safari/537.36"",""on_chrome"":true,""on_mobile"":false,""language"":""en-US"",""screen_resolution"":[1440,900],""platform"":""MacIntel"",""timezone"":""Europe/Berlin""}","7","10873.225000000128","","","1557993964283","8","","","[]","Gotha","false","false","11699.194999999658"
"","html-voicekey-response","34","314319","0.0-4.30-0.30","0d374y31d51kj4l","{""user_agent"":""Mozilla/5.0 (Macintosh; Intel Mac OS X 10_14_4) AppleWebKit/537.36 (KHTML, like Gecko) Chrome/74.0.3729.131 Safari/537.36"",""on_chrome"":true,""on_mobile"":false,""language"":""en-US"",""screen_resolution"":[1440,900],""platform"":""MacIntel"",""timezone"":""Europe/Berlin""}","7","3598.424999999965","","","1557993979986","5","","","[]","Aachen","false","false","4391.22499999986"
"","html-voicekey-response","35","323712","0.0-4.31-0.31","0d374y31d51kj4l","{""user_agent"":""Mozilla/5.0 (Macintosh; Intel Mac OS X 10_14_4) AppleWebKit/537.36 (KHTML, like Gecko) Chrome/74.0.3729.131 Safari/537.36"",""on_chrome"":true,""on_mobile"":false,""language"":""en-US"",""screen_resolution"":[1440,900],""platform"":""MacIntel"",""timezone"":""Europe/Berlin""}","7","3122.2799999998883","","","1557993988379","4","","","[]","Würzburg","false","false","5389.610000000161"
"","html-voicekey-response","36","328544","0.0-4.32-0.32","0d374y31d51kj4l","{""user_agent"":""Mozilla/5.0 (Macintosh; Intel Mac OS X 10_14_4) AppleWebKit/537.36 (KHTML, like Gecko) Chrome/74.0.3729.131 Safari/537.36"",""on_chrome"":true,""on_mobile"":false,""language"":""en-US"",""screen_resolution"":[1440,900],""platform"":""MacIntel"",""timezone"":""Europe/Berlin""}","7","Infinity","","","1557993997772","9","","München","[]","München","true","false","4229.5600000002305"
"","html-voicekey-response","37","331823","0.0-4.33-0.33","0d374y31d51kj4l","{""user_agent"":""Mozilla/5.0 (Macintosh; Intel Mac OS X 10_14_4) AppleWebKit/537.36 (KHTML, like Gecko) Chrome/74.0.3729.131 Safari/537.36"",""on_chrome"":true,""on_mobile"":false,""language"":""en-US"",""screen_resolution"":[1440,900],""platform"":""MacIntel"",""timezone"":""Europe/Berlin""}","7","1515.2950000000187","","","1557994002605","6","","Dresden","[]","Dresden","true","false","2674.5750000000116"
"","html-voicekey-response","38","336739","0.0-4.34-0.34","0d374y31d51kj4l","{""user_agent"":""Mozilla/5.0 (Macintosh; Intel Mac OS X 10_14_4) AppleWebKit/537.36 (KHTML, like Gecko) Chrome/74.0.3729.131 Safari/537.36"",""on_chrome"":true,""on_mobile"":false,""language"":""en-US"",""screen_resolution"":[1440,900],""platform"":""MacIntel"",""timezone"":""Europe/Berlin""}","7","3537.15","","","1557994005883","7","","Erfurt","[]","Erfurt","true","false","4312.570000000065"
"","html-voicekey-response","39","341415","0.0-4.35-0.35","0d374y31d51kj4l","{""user_agent"":""Mozilla/5.0 (Macintosh; Intel Mac OS X 10_14_4) AppleWebKit/537.36 (KHTML, like Gecko) Chrome/74.0.3729.131 Safari/537.36"",""on_chrome"":true,""on_mobile"":false,""language"":""en-US"",""screen_resolution"":[1440,900],""platform"":""MacIntel"",""timezone"":""Europe/Berlin""}","7","3155.219999999949","","","1557994010799","4","","Würzburg","[]","Würzburg","true","false","4073.855000000098"
"","html-voicekey-response","40","347517","0.0-4.36-0.36","0d374y31d51kj4l","{""user_agent"":""Mozilla/5.0 (Macintosh; Intel Mac OS X 10_14_4) AppleWebKit/537.36 (KHTML, like Gecko) Chrome/74.0.3729.131 Safari/537.36"",""on_chrome"":true,""on_mobile"":false,""language"":""en-US"",""screen_resolution"":[1440,900],""platform"":""MacIntel"",""timezone"":""Europe/Berlin""}","7","4856.215000000118","","","1557994015475","5","","Aachen","[]","Aachen","true","false","5498.814999999944"
"","html-voicekey-response","41","355400","0.0-4.37-0.37","0d374y31d51kj4l","{""user_agent"":""Mozilla/5.0 (Macintosh; Intel Mac OS X 10_14_4) AppleWebKit/537.36 (KHTML, like Gecko) Chrome/74.0.3729.131 Safari/537.36"",""on_chrome"":true,""on_mobile"":false,""language"":""en-US"",""screen_resolution"":[1440,900],""platform"":""MacIntel"",""timezone"":""Europe/Berlin""}","7","2988.254999999632","","","1557994021577","8","","","[]","Gotha","false","false","3879.6450000000186"
"","html-voicekey-response","42","371256","0.0-4.38-0.38","0d374y31d51kj4l","{""user_agent"":""Mozilla/5.0 (Macintosh; Intel Mac OS X 10_14_4) AppleWebKit/537.36 (KHTML, like Gecko) Chrome/74.0.3729.131 Safari/537.36"",""on_chrome"":true,""on_mobile"":false,""language"":""en-US"",""screen_resolution"":[1440,900],""platform"":""MacIntel"",""timezone"":""Europe/Berlin""}","7","10944.835000000114","","","1557994029460","10","","","[]","Heidelberg","false","false","11853.805000000226"
"","html-voicekey-response","43","385368","0.0-4.39-0.39","0d374y31d51kj4l","{""user_agent"":""Mozilla/5.0 (Macintosh; Intel Mac OS X 10_14_4) AppleWebKit/537.36 (KHTML, like Gecko) Chrome/74.0.3729.131 Safari/537.36"",""on_chrome"":true,""on_mobile"":false,""language"":""en-US"",""screen_resolution"":[1440,900],""platform"":""MacIntel"",""timezone"":""Europe/Berlin""}","7","100","","","1557994045317","3","","","[]","Ingolstadt","false","false","10108.245000000345"
"","html-voicekey-response","44","391162","0.0-4.40-0.40","0d374y31d51kj4l","{""user_agent"":""Mozilla/5.0 (Macintosh; Intel Mac OS X 10_14_4) AppleWebKit/537.36 (KHTML, like Gecko) Chrome/74.0.3729.131 Safari/537.36"",""on_chrome"":true,""on_mobile"":false,""language"":""en-US"",""screen_resolution"":[1440,900],""platform"":""MacIntel"",""timezone"":""Europe/Berlin""}","7","Infinity","","","1557994059428","7","","Erfurt","[]","Erfurt","true","false","5190.270000000019"
"","html-voicekey-response","45","396228","0.0-4.41-0.41","0d374y31d51kj4l","{""user_agent"":""Mozilla/5.0 (Macintosh; Intel Mac OS X 10_14_4) AppleWebKit/537.36 (KHTML, like Gecko) Chrome/74.0.3729.131 Safari/537.36"",""on_chrome"":true,""on_mobile"":false,""language"":""en-US"",""screen_resolution"":[1440,900],""platform"":""MacIntel"",""timezone"":""Europe/Berlin""}","7","3617.880000000098","","","1557994065225","4","","Würzburg","[]","Würzburg","true","false","4459.890000000072"
"","html-voicekey-response","46","399687","0.0-4.42-0.42","0d374y31d51kj4l","{""user_agent"":""Mozilla/5.0 (Macintosh; Intel Mac OS X 10_14_4) AppleWebKit/537.36 (KHTML, like Gecko) Chrome/74.0.3729.131 Safari/537.36"",""on_chrome"":true,""on_mobile"":false,""language"":""en-US"",""screen_resolution"":[1440,900],""platform"":""MacIntel"",""timezone"":""Europe/Berlin""}","7","1875.7349999999046","","","1557994070293","9","","München","[]","München","true","false","2850.815000000235"
"","html-voicekey-response","47","407087","0.0-4.43-0.43","0d374y31d51kj4l","{""user_agent"":""Mozilla/5.0 (Macintosh; Intel Mac OS X 10_14_4) AppleWebKit/537.36 (KHTML, like Gecko) Chrome/74.0.3729.131 Safari/537.36"",""on_chrome"":true,""on_mobile"":false,""language"":""en-US"",""screen_resolution"":[1440,900],""platform"":""MacIntel"",""timezone"":""Europe/Berlin""}","7","2251.874999999744","","","1557994073750","5","","","[]","Aachen","false","false","3393.8249999996624"
"","html-voicekey-response","48","415414","0.0-4.44-0.44","0d374y31d51kj4l","{""user_agent"":""Mozilla/5.0 (Macintosh; Intel Mac OS X 10_14_4) AppleWebKit/537.36 (KHTML, like Gecko) Chrome/74.0.3729.131 Safari/537.36"",""on_chrome"":true,""on_mobile"":false,""language"":""en-US"",""screen_resolution"":[1440,900],""platform"":""MacIntel"",""timezone"":""Europe/Berlin""}","7","3203.824999999872","","","1557994081148","8","","","[]","Gotha","false","false","4323.1350000000675"
"","html-voicekey-response","49","421731","0.0-4.45-0.45","0d374y31d51kj4l","{""user_agent"":""Mozilla/5.0 (Macintosh; Intel Mac OS X 10_14_4) AppleWebKit/537.36 (KHTML, like Gecko) Chrome/74.0.3729.131 Safari/537.36"",""on_chrome"":true,""on_mobile"":false,""language"":""en-US"",""screen_resolution"":[1440,900],""platform"":""MacIntel"",""timezone"":""Europe/Berlin""}","7","Infinity","","","1557994089474","3","","Ingolstadt","[]","Ingolstadt","true","false","5713.5800000000745"
"","html-voicekey-response","50","428959","0.0-4.46-0.46","0d374y31d51kj4l","{""user_agent"":""Mozilla/5.0 (Macintosh; Intel Mac OS X 10_14_4) AppleWebKit/537.36 (KHTML, like Gecko) Chrome/74.0.3729.131 Safari/537.36"",""on_chrome"":true,""on_mobile"":false,""language"":""en-US"",""screen_resolution"":[1440,900],""platform"":""MacIntel"",""timezone"":""Europe/Berlin""}","7","2183.8100000002655","","","1557994095791","10","","","[]","Heidelberg","false","false","3225.6150000002817"
"","html-voicekey-response","51","432592","0.0-4.47-0.47","0d374y31d51kj4l","{""user_agent"":""Mozilla/5.0 (Macintosh; Intel Mac OS X 10_14_4) AppleWebKit/537.36 (KHTML, like Gecko) Chrome/74.0.3729.131 Safari/537.36"",""on_chrome"":true,""on_mobile"":false,""language"":""en-US"",""screen_resolution"":[1440,900],""platform"":""MacIntel"",""timezone"":""Europe/Berlin""}","7","Infinity","","","1557994103019","7","","Erfurt","[]","Erfurt","true","false","3030.539999999746"
"","html-voicekey-response","52","438950","0.0-4.48-0.48","0d374y31d51kj4l","{""user_agent"":""Mozilla/5.0 (Macintosh; Intel Mac OS X 10_14_4) AppleWebKit/537.36 (KHTML, like Gecko) Chrome/74.0.3729.131 Safari/537.36"",""on_chrome"":true,""on_mobile"":false,""language"":""en-US"",""screen_resolution"":[1440,900],""platform"":""MacIntel"",""timezone"":""Europe/Berlin""}","7","912.8950000002282","","","1557994106653","4","","","[]","Würzburg","false","false","2354.6049999999814"
"","html-voicekey-response","53","445400","0.0-4.49-0.49","0d374y31d51kj4l","{""user_agent"":""Mozilla/5.0 (Macintosh; Intel Mac OS X 10_14_4) AppleWebKit/537.36 (KHTML, like Gecko) Chrome/74.0.3729.131 Safari/537.36"",""on_chrome"":true,""on_mobile"":false,""language"":""en-US"",""screen_resolution"":[1440,900],""platform"":""MacIntel"",""timezone"":""Europe/Berlin""}","7","1437.9050000001212","","","1557994113010","8","","","[]","Gotha","false","false","2446.7600000003004"
"","html-voicekey-response","54","458678","0.0-4.50-0.50","0d374y31d51kj4l","{""user_agent"":""Mozilla/5.0 (Macintosh; Intel Mac OS X 10_14_4) AppleWebKit/537.36 (KHTML, like Gecko) Chrome/74.0.3729.131 Safari/537.36"",""on_chrome"":true,""on_mobile"":false,""language"":""en-US"",""screen_resolution"":[1440,900],""platform"":""MacIntel"",""timezone"":""Europe/Berlin""}","7","8303.860000000312","","","1557994119460","5","","","[]","Aachen","false","false","9274.835000000196"
"","html-voicekey-response","55","474804","0.0-4.51-0.51","0d374y31d51kj4l","{""user_agent"":""Mozilla/5.0 (Macintosh; Intel Mac OS X 10_14_4) AppleWebKit/537.36 (KHTML, like Gecko) Chrome/74.0.3729.131 Safari/537.36"",""on_chrome"":true,""on_mobile"":false,""language"":""en-US"",""screen_resolution"":[1440,900],""platform"":""MacIntel"",""timezone"":""Europe/Berlin""}","7","11286.904999999771","","","1557994132738","10","","","[]","Heidelberg","false","false","12121.349999999919"
"","html-voicekey-response","56","480664","0.0-4.52-0.52","0d374y31d51kj4l","{""user_agent"":""Mozilla/5.0 (Macintosh; Intel Mac OS X 10_14_4) AppleWebKit/537.36 (KHTML, like Gecko) Chrome/74.0.3729.131 Safari/537.36"",""on_chrome"":true,""on_mobile"":false,""language"":""en-US"",""screen_resolution"":[1440,900],""platform"":""MacIntel"",""timezone"":""Europe/Berlin""}","7","4513.49500000003","","","1557994148865","4","","Würzburg","[]","Würzburg","true","false","5256.1900000000605"
"","html-voicekey-response","57","488670","0.0-4.53-0.53","0d374y31d51kj4l","{""user_agent"":""Mozilla/5.0 (Macintosh; Intel Mac OS X 10_14_4) AppleWebKit/537.36 (KHTML, like Gecko) Chrome/74.0.3729.131 Safari/537.36"",""on_chrome"":true,""on_mobile"":false,""language"":""en-US"",""screen_resolution"":[1440,900],""platform"":""MacIntel"",""timezone"":""Europe/Berlin""}","7","2436.7449999998557","","","1557994154725","5","","","[]","Aachen","false","false","4002.6149999998743"
"","html-voicekey-response","58","495821","0.0-4.54-0.54","0d374y31d51kj4l","{""user_agent"":""Mozilla/5.0 (Macintosh; Intel Mac OS X 10_14_4) AppleWebKit/537.36 (KHTML, like Gecko) Chrome/74.0.3729.131 Safari/537.36"",""on_chrome"":true,""on_mobile"":false,""language"":""en-US"",""screen_resolution"":[1440,900],""platform"":""MacIntel"",""timezone"":""Europe/Berlin""}","7","2154.4800000000164","","","1557994162731","3","","","[]","Ingolstadt","false","false","3146.710000000021"
"","html-voicekey-response","59","499363","0.0-4.55-0.55","0d374y31d51kj4l","{""user_agent"":""Mozilla/5.0 (Macintosh; Intel Mac OS X 10_14_4) AppleWebKit/537.36 (KHTML, like Gecko) Chrome/74.0.3729.131 Safari/537.36"",""on_chrome"":true,""on_mobile"":false,""language"":""en-US"",""screen_resolution"":[1440,900],""platform"":""MacIntel"",""timezone"":""Europe/Berlin""}","7","Infinity","","","1557994169882","7","","Erfurt","[]","Erfurt","true","false","2937.995000000228"
"","html-voicekey-response","60","502433","0.0-4.56-0.56","0d374y31d51kj4l","{""user_agent"":""Mozilla/5.0 (Macintosh; Intel Mac OS X 10_14_4) AppleWebKit/537.36 (KHTML, like Gecko) Chrome/74.0.3729.131 Safari/537.36"",""on_chrome"":true,""on_mobile"":false,""language"":""en-US"",""screen_resolution"":[1440,900],""platform"":""MacIntel"",""timezone"":""Europe/Berlin""}","7","1787.935000000091","","","1557994173424","4","","Würzburg","[]","Würzburg","true","false","2463.325000000128"
"","html-voicekey-response","61","510604","0.0-4.57-0.57","0d374y31d51kj4l","{""user_agent"":""Mozilla/5.0 (Macintosh; Intel Mac OS X 10_14_4) AppleWebKit/537.36 (KHTML, like Gecko) Chrome/74.0.3729.131 Safari/537.36"",""on_chrome"":true,""on_mobile"":false,""language"":""en-US"",""screen_resolution"":[1440,900],""platform"":""MacIntel"",""timezone"":""Europe/Berlin""}","7","1825.7050000000513","","","1557994176493","8","","","[]","Gotha","false","false","4167.684999999881"
"","html-voicekey-response","62","519471","0.0-4.58-0.58","0d374y31d51kj4l","{""user_agent"":""Mozilla/5.0 (Macintosh; Intel Mac OS X 10_14_4) AppleWebKit/537.36 (KHTML, like Gecko) Chrome/74.0.3729.131 Safari/537.36"",""on_chrome"":true,""on_mobile"":false,""language"":""en-US"",""screen_resolution"":[1440,900],""platform"":""MacIntel"",""timezone"":""Europe/Berlin""}","7","2987.4049999997137","","","1557994184665","5","","","[]","Aachen","false","false","4862.47000000003"
"","html-voicekey-response","63","527228","0.0-4.59-0.59","0d374y31d51kj4l","{""user_agent"":""Mozilla/5.0 (Macintosh; Intel Mac OS X 10_14_4) AppleWebKit/537.36 (KHTML, like Gecko) Chrome/74.0.3729.131 Safari/537.36"",""on_chrome"":true,""on_mobile"":false,""language"":""en-US"",""screen_resolution"":[1440,900],""platform"":""MacIntel"",""timezone"":""Europe/Berlin""}","7","Infinity","","","1557994193532","10","","Heidelberg","[]","Heidelberg","true","false","7152.640000000189"
"","html-voicekey-response","64","530322","0.0-4.60-0.60","0d374y31d51kj4l","{""user_agent"":""Mozilla/5.0 (Macintosh; Intel Mac OS X 10_14_4) AppleWebKit/537.36 (KHTML, like Gecko) Chrome/74.0.3729.131 Safari/537.36"",""on_chrome"":true,""on_mobile"":false,""language"":""en-US"",""screen_resolution"":[1440,900],""platform"":""MacIntel"",""timezone"":""Europe/Berlin""}","7","1781.5950000001817","","","1557994201289","9","","München","[]","München","true","false","2490.2750000000233"
"","html-voicekey-response","65","533838","0.0-4.61-0.61","0d374y31d51kj4l","{""user_agent"":""Mozilla/5.0 (Macintosh; Intel Mac OS X 10_14_4) AppleWebKit/537.36 (KHTML, like Gecko) Chrome/74.0.3729.131 Safari/537.36"",""on_chrome"":true,""on_mobile"":false,""language"":""en-US"",""screen_resolution"":[1440,900],""platform"":""MacIntel"",""timezone"":""Europe/Berlin""}","7","2403.6999999996974","","","1557994204383","1","","Magdeburg","[]","Magdeburg","true","false","2912.644999999786"
"","html-voicekey-response","66","536788","0.0-4.62-0.62","0d374y31d51kj4l","{""user_agent"":""Mozilla/5.0 (Macintosh; Intel Mac OS X 10_14_4) AppleWebKit/537.36 (KHTML, like Gecko) Chrome/74.0.3729.131 Safari/537.36"",""on_chrome"":true,""on_mobile"":false,""language"":""en-US"",""screen_resolution"":[1440,900],""platform"":""MacIntel"",""timezone"":""Europe/Berlin""}","7","1620.4799999999582","","","1557994207900","2","","Berlin","[]","Berlin","true","false","2345.8500000002095"
"","html-voicekey-response","67","543912","0.0-4.63-0.63","0d374y31d51kj4l","{""user_agent"":""Mozilla/5.0 (Macintosh; Intel Mac OS X 10_14_4) AppleWebKit/537.36 (KHTML, like Gecko) Chrome/74.0.3729.131 Safari/537.36"",""on_chrome"":true,""on_mobile"":false,""language"":""en-US"",""screen_resolution"":[1440,900],""platform"":""MacIntel"",""timezone"":""Europe/Berlin""}","7","2036.9250000001398","","","1557994210850","5","","","[]","Aachen","false","false","3119.79999999993"
"","html-voicekey-response","68","547929","0.0-4.64-0.64","0d374y31d51kj4l","{""user_agent"":""Mozilla/5.0 (Macintosh; Intel Mac OS X 10_14_4) AppleWebKit/537.36 (KHTML, like Gecko) Chrome/74.0.3729.131 Safari/537.36"",""on_chrome"":true,""on_mobile"":false,""language"":""en-US"",""screen_resolution"":[1440,900],""platform"":""MacIntel"",""timezone"":""Europe/Berlin""}","7","100","","","1557994217973","4","","Würzburg","[]","Würzburg","true","false","3412.5599999997066"
"","html-voicekey-response","69","555903","0.0-4.65-0.65","0d374y31d51kj4l","{""user_agent"":""Mozilla/5.0 (Macintosh; Intel Mac OS X 10_14_4) AppleWebKit/537.36 (KHTML, like Gecko) Chrome/74.0.3729.131 Safari/537.36"",""on_chrome"":true,""on_mobile"":false,""language"":""en-US"",""screen_resolution"":[1440,900],""platform"":""MacIntel"",""timezone"":""Europe/Berlin""}","7","2809.1999999999302","","","1557994221992","7","","","[]","Erfurt","false","false","3967.8899999998976"
"","html-voicekey-response","70","558670","0.0-4.66-0.66","0d374y31d51kj4l","{""user_agent"":""Mozilla/5.0 (Macintosh; Intel Mac OS X 10_14_4) AppleWebKit/537.36 (KHTML, like Gecko) Chrome/74.0.3729.131 Safari/537.36"",""on_chrome"":true,""on_mobile"":false,""language"":""en-US"",""screen_resolution"":[1440,900],""platform"":""MacIntel"",""timezone"":""Europe/Berlin""}","7","100","","","1557994229965","8","","Gotha","[]","Gotha","true","false","2160.5550000004005"
"","html-voicekey-response","71","565544","0.0-4.67-0.67","0d374y31d51kj4l","{""user_agent"":""Mozilla/5.0 (Macintosh; Intel Mac OS X 10_14_4) AppleWebKit/537.36 (KHTML, like Gecko) Chrome/74.0.3729.131 Safari/537.36"",""on_chrome"":true,""on_mobile"":false,""language"":""en-US"",""screen_resolution"":[1440,900],""platform"":""MacIntel"",""timezone"":""Europe/Berlin""}","7","2093.0449999999023","","","1557994232732","3","","","[]","Ingolstadt","false","false","2869.094999999972"
"","html-voicekey-response","72","568127","0.0-4.68-0.68","0d374y31d51kj4l","{""user_agent"":""Mozilla/5.0 (Macintosh; Intel Mac OS X 10_14_4) AppleWebKit/537.36 (KHTML, like Gecko) Chrome/74.0.3729.131 Safari/537.36"",""on_chrome"":true,""on_mobile"":false,""language"":""en-US"",""screen_resolution"":[1440,900],""platform"":""MacIntel"",""timezone"":""Europe/Berlin""}","7","100","","","1557994239605","7","","Erfurt","[]","Erfurt","true","false","1978.7949999999255"
"","html-voicekey-response","73","575718","0.0-4.69-0.69","0d374y31d51kj4l","{""user_agent"":""Mozilla/5.0 (Macintosh; Intel Mac OS X 10_14_4) AppleWebKit/537.36 (KHTML, like Gecko) Chrome/74.0.3729.131 Safari/537.36"",""on_chrome"":true,""on_mobile"":false,""language"":""en-US"",""screen_resolution"":[1440,900],""platform"":""MacIntel"",""timezone"":""Europe/Berlin""}","7","2217.895000000112","","","1557994242190","5","","","[]","Aachen","false","false","3584.919999999809"
"","html-voicekey-response","74","583017","0.0-4.70-0.70","0d374y31d51kj4l","{""user_agent"":""Mozilla/5.0 (Macintosh; Intel Mac OS X 10_14_4) AppleWebKit/537.36 (KHTML, like Gecko) Chrome/74.0.3729.131 Safari/537.36"",""on_chrome"":true,""on_mobile"":false,""language"":""en-US"",""screen_resolution"":[1440,900],""platform"":""MacIntel"",""timezone"":""Europe/Berlin""}","7","1935.1149999995018","","","1557994249780","10","","","[]","Heidelberg","false","false","3293.504999999539"
"","html-voicekey-response","75","590093","0.0-4.71-0.71","0d374y31d51kj4l","{""user_agent"":""Mozilla/5.0 (Macintosh; Intel Mac OS X 10_14_4) AppleWebKit/537.36 (KHTML, like Gecko) Chrome/74.0.3729.131 Safari/537.36"",""on_chrome"":true,""on_mobile"":false,""language"":""en-US"",""screen_resolution"":[1440,900],""platform"":""MacIntel"",""timezone"":""Europe/Berlin""}","7","100","","","1557994257079","5","","","[]","Aachen","false","false","3070.67499999993"
"","html-voicekey-response","76","597550","0.0-4.72-0.72","0d374y31d51kj4l","{""user_agent"":""Mozilla/5.0 (Macintosh; Intel Mac OS X 10_14_4) AppleWebKit/537.36 (KHTML, like Gecko) Chrome/74.0.3729.131 Safari/537.36"",""on_chrome"":true,""on_mobile"":false,""language"":""en-US"",""screen_resolution"":[1440,900],""platform"":""MacIntel"",""timezone"":""Europe/Berlin""}","7","234.77499999965076","","","1557994264156","3","","","[]","Ingolstadt","false","false","3451.6249999996508"
"","html-voicekey-response","77","601866","0.0-4.73-0.73","0d374y31d51kj4l","{""user_agent"":""Mozilla/5.0 (Macintosh; Intel Mac OS X 10_14_4) AppleWebKit/537.36 (KHTML, like Gecko) Chrome/74.0.3729.131 Safari/537.36"",""on_chrome"":true,""on_mobile"":false,""language"":""en-US"",""screen_resolution"":[1440,900],""platform"":""MacIntel"",""timezone"":""Europe/Berlin""}","7","Infinity","","","1557994271613","5","","Aachen","[]","Aachen","true","false","3710.1550000001444"
"","html-voicekey-response","78","604558","0.0-4.74-0.74","0d374y31d51kj4l","{""user_agent"":""Mozilla/5.0 (Macintosh; Intel Mac OS X 10_14_4) AppleWebKit/537.36 (KHTML, like Gecko) Chrome/74.0.3729.131 Safari/537.36"",""on_chrome"":true,""on_mobile"":false,""language"":""en-US"",""screen_resolution"":[1440,900],""platform"":""MacIntel"",""timezone"":""Europe/Berlin""}","7","593.7899999997811","","","1557994275929","4","","Würzburg","[]","Würzburg","true","false","2086.254999999772"
"","html-voicekey-response","79","606824","0.0-4.75-0.75","0d374y31d51kj4l","{""user_agent"":""Mozilla/5.0 (Macintosh; Intel Mac OS X 10_14_4) AppleWebKit/537.36 (KHTML, like Gecko) Chrome/74.0.3729.131 Safari/537.36"",""on_chrome"":true,""on_mobile"":false,""language"":""en-US"",""screen_resolution"":[1440,900],""platform"":""MacIntel"",""timezone"":""Europe/Berlin""}","7","1084.5749999996974","","","1557994278621","7","","Erfurt","[]","Erfurt","true","false","1660.3549999999814"
"","html-voicekey-response","80","615240","0.0-4.76-0.76","0d374y31d51kj4l","{""user_agent"":""Mozilla/5.0 (Macintosh; Intel Mac OS X 10_14_4) AppleWebKit/537.36 (KHTML, like Gecko) Chrome/74.0.3729.131 Safari/537.36"",""on_chrome"":true,""on_mobile"":false,""language"":""en-US"",""screen_resolution"":[1440,900],""platform"":""MacIntel"",""timezone"":""Europe/Berlin""}","7","3435.760000000219","","","1557994280887","5","","","[]","Aachen","false","false","4410.35999999987"
"","html-voicekey-response","81","622901","0.0-4.77-0.77","0d374y31d51kj4l","{""user_agent"":""Mozilla/5.0 (Macintosh; Intel Mac OS X 10_14_4) AppleWebKit/537.36 (KHTML, like Gecko) Chrome/74.0.3729.131 Safari/537.36"",""on_chrome"":true,""on_mobile"":false,""language"":""en-US"",""screen_resolution"":[1440,900],""platform"":""MacIntel"",""timezone"":""Europe/Berlin""}","7","2236.585000000056","","","1557994289304","8","","","[]","Gotha","false","false","3654.985000000219"
"","html-voicekey-response","82","629651","0.0-4.78-0.78","0d374y31d51kj4l","{""user_agent"":""Mozilla/5.0 (Macintosh; Intel Mac OS X 10_14_4) AppleWebKit/537.36 (KHTML, like Gecko) Chrome/74.0.3729.131 Safari/537.36"",""on_chrome"":true,""on_mobile"":false,""language"":""en-US"",""screen_resolution"":[1440,900],""platform"":""MacIntel"",""timezone"":""Europe/Berlin""}","7","1751.3450000004145","","","1557994296965","5","","","[]","Aachen","false","false","2743.3950000004843"
"","html-voicekey-response","83","633476","0.0-4.79-0.79","0d374y31d51kj4l","{""user_agent"":""Mozilla/5.0 (Macintosh; Intel Mac OS X 10_14_4) AppleWebKit/537.36 (KHTML, like Gecko) Chrome/74.0.3729.131 Safari/537.36"",""on_chrome"":true,""on_mobile"":false,""language"":""en-US"",""screen_resolution"":[1440,900],""platform"":""MacIntel"",""timezone"":""Europe/Berlin""}","7","2393.0699999999256","","","1557994303713","6","","Dresden","[]","Dresden","true","false","3219.33499999973"
"","html-voicekey-response","84","637675","0.0-4.80-0.80","0d374y31d51kj4l","{""user_agent"":""Mozilla/5.0 (Macintosh; Intel Mac OS X 10_14_4) AppleWebKit/537.36 (KHTML, like Gecko) Chrome/74.0.3729.131 Safari/537.36"",""on_chrome"":true,""on_mobile"":false,""language"":""en-US"",""screen_resolution"":[1440,900],""platform"":""MacIntel"",""timezone"":""Europe/Berlin""}","7","2100.449999999814","","","1557994307538","5","","Aachen","[]","Aachen","true","false","3593.2349999998696"
"","html-voicekey-response","85","645401","0.0-4.81-0.81","0d374y31d51kj4l","{""user_agent"":""Mozilla/5.0 (Macintosh; Intel Mac OS X 10_14_4) AppleWebKit/537.36 (KHTML, like Gecko) Chrome/74.0.3729.131 Safari/537.36"",""on_chrome"":true,""on_mobile"":false,""language"":""en-US"",""screen_resolution"":[1440,900],""platform"":""MacIntel"",""timezone"":""Europe/Berlin""}","7","2077.015000000107","","","1557994311738","3","","","[]","Ingolstadt","false","false","3719.9700000000885"
"","html-voicekey-response","86","652633","0.0-4.82-0.82","0d374y31d51kj4l","{""user_agent"":""Mozilla/5.0 (Macintosh; Intel Mac OS X 10_14_4) AppleWebKit/537.36 (KHTML, like Gecko) Chrome/74.0.3729.131 Safari/537.36"",""on_chrome"":true,""on_mobile"":false,""language"":""en-US"",""screen_resolution"":[1440,900],""platform"":""MacIntel"",""timezone"":""Europe/Berlin""}","7","1866.9649999999442","","","1557994319465","5","","","[]","Aachen","false","false","3224.2399999999907"
"","html-voicekey-response","87","660573","0.0-4.83-0.83","0d374y31d51kj4l","{""user_agent"":""Mozilla/5.0 (Macintosh; Intel Mac OS X 10_14_4) AppleWebKit/537.36 (KHTML, like Gecko) Chrome/74.0.3729.131 Safari/537.36"",""on_chrome"":true,""on_mobile"":false,""language"":""en-US"",""screen_resolution"":[1440,900],""platform"":""MacIntel"",""timezone"":""Europe/Berlin""}","7","1341.2449999999722","","","1557994326697","8","","","[]","Gotha","false","false","3933.2500000001164"
"","html-voicekey-response","88","667701","0.0-4.84-0.84","0d374y31d51kj4l","{""user_agent"":""Mozilla/5.0 (Macintosh; Intel Mac OS X 10_14_4) AppleWebKit/537.36 (KHTML, like Gecko) Chrome/74.0.3729.131 Safari/537.36"",""on_chrome"":true,""on_mobile"":false,""language"":""en-US"",""screen_resolution"":[1440,900],""platform"":""MacIntel"",""timezone"":""Europe/Berlin""}","7","1917.9250000000234","","","1557994334637","5","","","[]","Aachen","false","false","3121.4449999998324"
"","html-voicekey-response","89","669967","0.0-4.85-0.85","0d374y31d51kj4l","{""user_agent"":""Mozilla/5.0 (Macintosh; Intel Mac OS X 10_14_4) AppleWebKit/537.36 (KHTML, like Gecko) Chrome/74.0.3729.131 Safari/537.36"",""on_chrome"":true,""on_mobile"":false,""language"":""en-US"",""screen_resolution"":[1440,900],""platform"":""MacIntel"",""timezone"":""Europe/Berlin""}","7","316.1349999998696","","","1557994341765","7","","Erfurt","[]","Erfurt","true","false","1659.0499999998137"
"","html-voicekey-response","90","672969","0.0-4.86-0.86","0d374y31d51kj4l","{""user_agent"":""Mozilla/5.0 (Macintosh; Intel Mac OS X 10_14_4) AppleWebKit/537.36 (KHTML, like Gecko) Chrome/74.0.3729.131 Safari/537.36"",""on_chrome"":true,""on_mobile"":false,""language"":""en-US"",""screen_resolution"":[1440,900],""platform"":""MacIntel"",""timezone"":""Europe/Berlin""}","7","1649.6299999997486","","","1557994344032","5","","Aachen","[]","Aachen","true","false","2392.6099999998696"
"","html-voicekey-response","91","680491","0.0-4.87-0.87","0d374y31d51kj4l","{""user_agent"":""Mozilla/5.0 (Macintosh; Intel Mac OS X 10_14_4) AppleWebKit/537.36 (KHTML, like Gecko) Chrome/74.0.3729.131 Safari/537.36"",""on_chrome"":true,""on_mobile"":false,""language"":""en-US"",""screen_resolution"":[1440,900],""platform"":""MacIntel"",""timezone"":""Europe/Berlin""}","7","2789.3949999999954","","","1557994347033","10","","","[]","Heidelberg","false","false","3514.8300000000745"
"","html-voicekey-response","92","684158","0.0-4.88-0.88","0d374y31d51kj4l","{""user_agent"":""Mozilla/5.0 (Macintosh; Intel Mac OS X 10_14_4) AppleWebKit/537.36 (KHTML, like Gecko) Chrome/74.0.3729.131 Safari/537.36"",""on_chrome"":true,""on_mobile"":false,""language"":""en-US"",""screen_resolution"":[1440,900],""platform"":""MacIntel"",""timezone"":""Europe/Berlin""}","7","100","","","1557994354556","5","","Aachen","[]","Aachen","true","false","3059.029999999795"
"","html-voicekey-response","93","690583","0.0-4.89-0.89","0d374y31d51kj4l","{""user_agent"":""Mozilla/5.0 (Macintosh; Intel Mac OS X 10_14_4) AppleWebKit/537.36 (KHTML, like Gecko) Chrome/74.0.3729.131 Safari/537.36"",""on_chrome"":true,""on_mobile"":false,""language"":""en-US"",""screen_resolution"":[1440,900],""platform"":""MacIntel"",""timezone"":""Europe/Berlin""}","7","1092.2300000000746","","","1557994358222","8","","","[]","Gotha","false","false","2417.669999999809"
"","html-voicekey-response","94","698315","0.0-4.90-0.90","0d374y31d51kj4l","{""user_agent"":""Mozilla/5.0 (Macintosh; Intel Mac OS X 10_14_4) AppleWebKit/537.36 (KHTML, like Gecko) Chrome/74.0.3729.131 Safari/537.36"",""on_chrome"":true,""on_mobile"":false,""language"":""en-US"",""screen_resolution"":[1440,900],""platform"":""MacIntel"",""timezone"":""Europe/Berlin""}","7","2066.714999999828","","","1557994364647","5","","","[]","Aachen","false","false","3724.694999999949"
"","html-voicekey-response","95","706222","0.0-4.91-0.91","0d374y31d51kj4l","{""user_agent"":""Mozilla/5.0 (Macintosh; Intel Mac OS X 10_14_4) AppleWebKit/537.36 (KHTML, like Gecko) Chrome/74.0.3729.131 Safari/537.36"",""on_chrome"":true,""on_mobile"":false,""language"":""en-US"",""screen_resolution"":[1440,900],""platform"":""MacIntel"",""timezone"":""Europe/Berlin""}","7","2341.0999999999535","","","1557994372379","3","","","[]","Ingolstadt","false","false","3899.625"
"","html-voicekey-response","96","714572","0.0-4.92-0.92","0d374y31d51kj4l","{""user_agent"":""Mozilla/5.0 (Macintosh; Intel Mac OS X 10_14_4) AppleWebKit/537.36 (KHTML, like Gecko) Chrome/74.0.3729.131 Safari/537.36"",""on_chrome"":true,""on_mobile"":false,""language"":""en-US"",""screen_resolution"":[1440,900],""platform"":""MacIntel"",""timezone"":""Europe/Berlin""}","7","100","","","1557994380287","5","","","[]","Aachen","false","false","4340.975000000093"
"","html-voicekey-response","97","721048","0.0-4.93-0.93","0d374y31d51kj4l","{""user_agent"":""Mozilla/5.0 (Macintosh; Intel Mac OS X 10_14_4) AppleWebKit/537.36 (KHTML, like Gecko) Chrome/74.0.3729.131 Safari/537.36"",""on_chrome"":true,""on_mobile"":false,""language"":""en-US"",""screen_resolution"":[1440,900],""platform"":""MacIntel"",""timezone"":""Europe/Berlin""}","7","1193.3750000000932","","","1557994388637","10","","","[]","Heidelberg","false","false","2467.70000000007"
"","html-voicekey-response","98","728273","0.0-4.94-0.94","0d374y31d51kj4l","{""user_agent"":""Mozilla/5.0 (Macintosh; Intel Mac OS X 10_14_4) AppleWebKit/537.36 (KHTML, like Gecko) Chrome/74.0.3729.131 Safari/537.36"",""on_chrome"":true,""on_mobile"":false,""language"":""en-US"",""screen_resolution"":[1440,900],""platform"":""MacIntel"",""timezone"":""Europe/Berlin""}","7","1342.3349999997067","","","1557994395113","5","","","[]","Aachen","false","false","3217.6949999998324"
"","html-voicekey-response","99","736113","0.0-4.95-0.95","0d374y31d51kj4l","{""user_agent"":""Mozilla/5.0 (Macintosh; Intel Mac OS X 10_14_4) AppleWebKit/537.36 (KHTML, like Gecko) Chrome/74.0.3729.131 Safari/537.36"",""on_chrome"":true,""on_mobile"":false,""language"":""en-US"",""screen_resolution"":[1440,900],""platform"":""MacIntel"",""timezone"":""Europe/Berlin""}","7","1949.870000000205","","","1557994402338","3","","","[]","Ingolstadt","false","false","3832.734999999986"
"","html-voicekey-response","100","744580","0.0-4.96-0.96","0d374y31d51kj4l","{""user_agent"":""Mozilla/5.0 (Macintosh; Intel Mac OS X 10_14_4) AppleWebKit/537.36 (KHTML, like Gecko) Chrome/74.0.3729.131 Safari/537.36"",""on_chrome"":true,""on_mobile"":false,""language"":""en-US"",""screen_resolution"":[1440,900],""platform"":""MacIntel"",""timezone"":""Europe/Berlin""}","7","2049.299999999907","","","1557994410180","5","","","[]","Aachen","false","false","4458.064999999828"
"","html-voicekey-response","101","751441","0.0-4.97-0.97","0d374y31d51kj4l","{""user_agent"":""Mozilla/5.0 (Macintosh; Intel Mac OS X 10_14_4) AppleWebKit/537.36 (KHTML, like Gecko) Chrome/74.0.3729.131 Safari/537.36"",""on_chrome"":true,""on_mobile"":false,""language"":""en-US"",""screen_resolution"":[1440,900],""platform"":""MacIntel"",""timezone"":""Europe/Berlin""}","7","100","","","1557994418646","8","","","[]","Gotha","false","false","2851.609999999753"
"","html-voicekey-response","102","758232","0.0-4.98-0.98","0d374y31d51kj4l","{""user_agent"":""Mozilla/5.0 (Macintosh; Intel Mac OS X 10_14_4) AppleWebKit/537.36 (KHTML, like Gecko) Chrome/74.0.3729.131 Safari/537.36"",""on_chrome"":true,""on_mobile"":false,""language"":""en-US"",""screen_resolution"":[1440,900],""platform"":""MacIntel"",""timezone"":""Europe/Berlin""}","7","1516.079999999702","","","1557994425506","5","","","[]","Aachen","false","false","2782.829999999609"
"","html-voicekey-response","103","767118","0.0-4.99-0.99","0d374y31d51kj4l","{""user_agent"":""Mozilla/5.0 (Macintosh; Intel Mac OS X 10_14_4) AppleWebKit/537.36 (KHTML, like Gecko) Chrome/74.0.3729.131 Safari/537.36"",""on_chrome"":true,""on_mobile"":false,""language"":""en-US"",""screen_resolution"":[1440,900],""platform"":""MacIntel"",""timezone"":""Europe/Berlin""}","7","3749.425000000256","","","1557994432298","3","","","[]","Ingolstadt","false","false","4874.425000000396"
"","html-voicekey-response","104","775239","0.0-4.100-0.100","0d374y31d51kj4l","{""user_agent"":""Mozilla/5.0 (Macintosh; Intel Mac OS X 10_14_4) AppleWebKit/537.36 (KHTML, like Gecko) Chrome/74.0.3729.131 Safari/537.36"",""on_chrome"":true,""on_mobile"":false,""language"":""en-US"",""screen_resolution"":[1440,900],""platform"":""MacIntel"",""timezone"":""Europe/Berlin""}","7","1622.090000000177","","","1557994441183","5","","","[]","Aachen","false","false","4112.639999999781"
"","html-voicekey-response","105","785983","0.0-4.101-0.101","0d374y31d51kj4l","{""user_agent"":""Mozilla/5.0 (Macintosh; Intel Mac OS X 10_14_4) AppleWebKit/537.36 (KHTML, like Gecko) Chrome/74.0.3729.131 Safari/537.36"",""on_chrome"":true,""on_mobile"":false,""language"":""en-US"",""screen_resolution"":[1440,900],""platform"":""MacIntel"",""timezone"":""Europe/Berlin""}","7","100","","","1557994449307","10","","","[]","Heidelberg","false","false","6732.9700000000885"
"","html-voicekey-response","106","796056","0.0-4.102-0.102","0d374y31d51kj4l","{""user_agent"":""Mozilla/5.0 (Macintosh; Intel Mac OS X 10_14_4) AppleWebKit/537.36 (KHTML, like Gecko) Chrome/74.0.3729.131 Safari/537.36"",""on_chrome"":true,""on_mobile"":false,""language"":""en-US"",""screen_resolution"":[1440,900],""platform"":""MacIntel"",""timezone"":""Europe/Berlin""}","7","4132.165000000246","","","1557994460048","5","","","[]","Aachen","false","false","6064.705000000191"
"","html-voicekey-response","107","799689","0.0-4.103-0.103","0d374y31d51kj4l","{""user_agent"":""Mozilla/5.0 (Macintosh; Intel Mac OS X 10_14_4) AppleWebKit/537.36 (KHTML, like Gecko) Chrome/74.0.3729.131 Safari/537.36"",""on_chrome"":true,""on_mobile"":false,""language"":""en-US"",""screen_resolution"":[1440,900],""platform"":""MacIntel"",""timezone"":""Europe/Berlin""}","7","100","","","1557994470122","8","","Gotha","[]","Gotha","true","false","3024.480000000098"
"","html-voicekey-response","108","802549","0.0-4.104-0.104","0d374y31d51kj4l","{""user_agent"":""Mozilla/5.0 (Macintosh; Intel Mac OS X 10_14_4) AppleWebKit/537.36 (KHTML, like Gecko) Chrome/74.0.3729.131 Safari/537.36"",""on_chrome"":true,""on_mobile"":false,""language"":""en-US"",""screen_resolution"":[1440,900],""platform"":""MacIntel"",""timezone"":""Europe/Berlin""}","7","1407.0949999999489","","","1557994473755","5","","Aachen","[]","Aachen","true","false","2250.285000000149"
"","html-voicekey-response","109","806263","0.0-4.105-0.105","0d374y31d51kj4l","{""user_agent"":""Mozilla/5.0 (Macintosh; Intel Mac OS X 10_14_4) AppleWebKit/537.36 (KHTML, like Gecko) Chrome/74.0.3729.131 Safari/537.36"",""on_chrome"":true,""on_mobile"":false,""language"":""en-US"",""screen_resolution"":[1440,900],""platform"":""MacIntel"",""timezone"":""Europe/Berlin""}","7","2264.6499999998837","","","1557994476615","3","","Ingolstadt","[]","Ingolstadt","true","false","3105.980000000214"
"","html-voicekey-response","110","814256","0.0-4.106-0.106","0d374y31d51kj4l","{""user_agent"":""Mozilla/5.0 (Macintosh; Intel Mac OS X 10_14_4) AppleWebKit/537.36 (KHTML, like Gecko) Chrome/74.0.3729.131 Safari/537.36"",""on_chrome"":true,""on_mobile"":false,""language"":""en-US"",""screen_resolution"":[1440,900],""platform"":""MacIntel"",""timezone"":""Europe/Berlin""}","7","2214.084999999823","","","1557994480332","5","","","[]","Aachen","false","false","3981.125000000233"
"","html-voicekey-response","111","817555","0.0-4.107-0.107","0d374y31d51kj4l","{""user_agent"":""Mozilla/5.0 (Macintosh; Intel Mac OS X 10_14_4) AppleWebKit/537.36 (KHTML, like Gecko) Chrome/74.0.3729.131 Safari/537.36"",""on_chrome"":true,""on_mobile"":false,""language"":""en-US"",""screen_resolution"":[1440,900],""platform"":""MacIntel"",""timezone"":""Europe/Berlin""}","7","100","","","1557994488323","10","","Heidelberg","[]","Heidelberg","true","false","2688.6149999999907"
"","html-voicekey-response","112","819848","0.0-4.108-0.108","0d374y31d51kj4l","{""user_agent"":""Mozilla/5.0 (Macintosh; Intel Mac OS X 10_14_4) AppleWebKit/537.36 (KHTML, like Gecko) Chrome/74.0.3729.131 Safari/537.36"",""on_chrome"":true,""on_mobile"":false,""language"":""en-US"",""screen_resolution"":[1440,900],""platform"":""MacIntel"",""timezone"":""Europe/Berlin""}","7","1006.7150000002933","","","1557994491622","5","","Aachen","[]","Aachen","true","false","1682.7850000000326"
"","html-voicekey-response","113","834647","0.0-4.109-0.109","0d374y31d51kj4l","{""user_agent"":""Mozilla/5.0 (Macintosh; Intel Mac OS X 10_14_4) AppleWebKit/537.36 (KHTML, like Gecko) Chrome/74.0.3729.131 Safari/537.36"",""on_chrome"":true,""on_mobile"":false,""language"":""en-US"",""screen_resolution"":[1440,900],""platform"":""MacIntel"",""timezone"":""Europe/Berlin""}","7","479.02000000011174","","","1557994493915","4","","","[]","Würzburg","false","false","10788.590000000084"
