"value","trial_type","trial_index","time_elapsed","internal_node_id","subject","browser_info","participant_number","rt","responses","view_history","presentation_start_time","id","text","response","keypresses","answer","correct","study","experimenter_rt"
"","call-function","0","7","0.0-0.0","x6o4fxoxq8j796l","{""user_agent"":""Mozilla/5.0 (Macintosh; Intel Mac OS X 10_14_4) AppleWebKit/537.36 (KHTML, like Gecko) Chrome/74.0.3729.131 Safari/537.36"",""on_chrome"":true,""on_mobile"":false,""language"":""en-US"",""screen_resolution"":[1440,900],""platform"":""MacIntel"",""timezone"":""Europe/Berlin""}","8","","","","","","","","","","","",""
"","survey-text","1","3954","0.0-1.0","x6o4fxoxq8j796l","{""user_agent"":""Mozilla/5.0 (Macintosh; Intel Mac OS X 10_14_4) AppleWebKit/537.36 (KHTML, like Gecko) Chrome/74.0.3729.131 Safari/537.36"",""on_chrome"":true,""on_mobile"":false,""language"":""en-US"",""screen_resolution"":[1440,900],""platform"":""MacIntel"",""timezone"":""Europe/Berlin""}","8","3944","{""Q0"":""8""}","","","","","","","","","",""
"","instructions","2","97384","0.0-2.0","x6o4fxoxq8j796l","{""user_agent"":""Mozilla/5.0 (Macintosh; Intel Mac OS X 10_14_4) AppleWebKit/537.36 (KHTML, like Gecko) Chrome/74.0.3729.131 Safari/537.36"",""on_chrome"":true,""on_mobile"":false,""language"":""en-US"",""screen_resolution"":[1440,900],""platform"":""MacIntel"",""timezone"":""Europe/Berlin""}","8","93430","","[{""page_index"":0,""viewing_time"":93430}]","","","","","","","","",""
"","call-function","3","97385","0.0-3.0","x6o4fxoxq8j796l","{""user_agent"":""Mozilla/5.0 (Macintosh; Intel Mac OS X 10_14_4) AppleWebKit/537.36 (KHTML, like Gecko) Chrome/74.0.3729.131 Safari/537.36"",""on_chrome"":true,""on_mobile"":false,""language"":""en-US"",""screen_resolution"":[1440,900],""platform"":""MacIntel"",""timezone"":""Europe/Berlin""}","8","","","","","","","","","","","",""
"","html-voicekey-response","4","100588","0.0-4.0-0.0","x6o4fxoxq8j796l","{""user_agent"":""Mozilla/5.0 (Macintosh; Intel Mac OS X 10_14_4) AppleWebKit/537.36 (KHTML, like Gecko) Chrome/74.0.3729.131 Safari/537.36"",""on_chrome"":true,""on_mobile"":false,""language"":""en-US"",""screen_resolution"":[1440,900],""platform"":""MacIntel"",""timezone"":""Europe/Berlin""}","8","425.1349999993457","","","1558001147979","1","","Magdeburg","[]","Magdeburg","true","true","2600.5649999988236"
"","html-voicekey-response","5","104855","0.0-4.1-0.1","x6o4fxoxq8j796l","{""user_agent"":""Mozilla/5.0 (Macintosh; Intel Mac OS X 10_14_4) AppleWebKit/537.36 (KHTML, like Gecko) Chrome/74.0.3729.131 Safari/537.36"",""on_chrome"":true,""on_mobile"":false,""language"":""en-US"",""screen_resolution"":[1440,900],""platform"":""MacIntel"",""timezone"":""Europe/Berlin""}","8","2885.5849999998377","","","1558001151185","1","","Magdeburg","[]","Magdeburg","true","false","3661.3849999994272"
"","html-voicekey-response","6","108171","0.0-4.2-0.2","x6o4fxoxq8j796l","{""user_agent"":""Mozilla/5.0 (Macintosh; Intel Mac OS X 10_14_4) AppleWebKit/537.36 (KHTML, like Gecko) Chrome/74.0.3729.131 Safari/537.36"",""on_chrome"":true,""on_mobile"":false,""language"":""en-US"",""screen_resolution"":[1440,900],""platform"":""MacIntel"",""timezone"":""Europe/Berlin""}","8","1621.8399999996386","","","1558001155449","2","","Berlin","[]","Berlin","true","true","2714.0550000003714"
"","html-voicekey-response","7","113295","0.0-4.3-0.3","x6o4fxoxq8j796l","{""user_agent"":""Mozilla/5.0 (Macintosh; Intel Mac OS X 10_14_4) AppleWebKit/537.36 (KHTML, like Gecko) Chrome/74.0.3729.131 Safari/537.36"",""on_chrome"":true,""on_mobile"":false,""language"":""en-US"",""screen_resolution"":[1440,900],""platform"":""MacIntel"",""timezone"":""Europe/Berlin""}","8","3995.9750000014815","","","1558001158766","2","","Berlin","[]","Berlin","true","false","4521.2850000007165"
"","html-voicekey-response","8","118395","0.0-4.4-0.4","x6o4fxoxq8j796l","{""user_agent"":""Mozilla/5.0 (Macintosh; Intel Mac OS X 10_14_4) AppleWebKit/537.36 (KHTML, like Gecko) Chrome/74.0.3729.131 Safari/537.36"",""on_chrome"":true,""on_mobile"":false,""language"":""en-US"",""screen_resolution"":[1440,900],""platform"":""MacIntel"",""timezone"":""Europe/Berlin""}","8","3589.3749999994093","","","1558001163889","3","","Ingolstadt","[]","Ingolstadt","true","true","4498.164999999062"
"","html-voicekey-response","9","121870","0.0-4.5-0.5","x6o4fxoxq8j796l","{""user_agent"":""Mozilla/5.0 (Macintosh; Intel Mac OS X 10_14_4) AppleWebKit/537.36 (KHTML, like Gecko) Chrome/74.0.3729.131 Safari/537.36"",""on_chrome"":true,""on_mobile"":false,""language"":""en-US"",""screen_resolution"":[1440,900],""platform"":""MacIntel"",""timezone"":""Europe/Berlin""}","8","2163.954999999833","","","1558001168989","4","","Würzburg","[]","Würzburg","true","true","2871.629999999641"
"","html-voicekey-response","10","125319","0.0-4.6-0.6","x6o4fxoxq8j796l","{""user_agent"":""Mozilla/5.0 (Macintosh; Intel Mac OS X 10_14_4) AppleWebKit/537.36 (KHTML, like Gecko) Chrome/74.0.3729.131 Safari/537.36"",""on_chrome"":true,""on_mobile"":false,""language"":""en-US"",""screen_resolution"":[1440,900],""platform"":""MacIntel"",""timezone"":""Europe/Berlin""}","8","1738.580000000939","","","1558001172464","3","","Ingolstadt","[]","Ingolstadt","true","false","2847.4050000004354"
"","html-voicekey-response","11","128053","0.0-4.7-0.7","x6o4fxoxq8j796l","{""user_agent"":""Mozilla/5.0 (Macintosh; Intel Mac OS X 10_14_4) AppleWebKit/537.36 (KHTML, like Gecko) Chrome/74.0.3729.131 Safari/537.36"",""on_chrome"":true,""on_mobile"":false,""language"":""en-US"",""screen_resolution"":[1440,900],""platform"":""MacIntel"",""timezone"":""Europe/Berlin""}","8","1373.1050000004238","","","1558001175913","4","","Würzburg","[]","Würzburg","true","false","2131.5300000005664"
"","html-voicekey-response","12","136461","0.0-4.8-0.8","x6o4fxoxq8j796l","{""user_agent"":""Mozilla/5.0 (Macintosh; Intel Mac OS X 10_14_4) AppleWebKit/537.36 (KHTML, like Gecko) Chrome/74.0.3729.131 Safari/537.36"",""on_chrome"":true,""on_mobile"":false,""language"":""en-US"",""screen_resolution"":[1440,900],""platform"":""MacIntel"",""timezone"":""Europe/Berlin""}","8","6955.469999998828","","","1558001178647","5","","Aachen","[]","Aachen","true","true","7805.604999999559"
"","html-voicekey-response","13","139344","0.0-4.9-0.9","x6o4fxoxq8j796l","{""user_agent"":""Mozilla/5.0 (Macintosh; Intel Mac OS X 10_14_4) AppleWebKit/537.36 (KHTML, like Gecko) Chrome/74.0.3729.131 Safari/537.36"",""on_chrome"":true,""on_mobile"":false,""language"":""en-US"",""screen_resolution"":[1440,900],""platform"":""MacIntel"",""timezone"":""Europe/Berlin""}","8","1538.8949999995298","","","1558001187055","6","","Dresden","[]","Dresden","true","true","2281.184999999823"
"","html-voicekey-response","14","142336","0.0-4.10-0.10","x6o4fxoxq8j796l","{""user_agent"":""Mozilla/5.0 (Macintosh; Intel Mac OS X 10_14_4) AppleWebKit/537.36 (KHTML, like Gecko) Chrome/74.0.3729.131 Safari/537.36"",""on_chrome"":true,""on_mobile"":false,""language"":""en-US"",""screen_resolution"":[1440,900],""platform"":""MacIntel"",""timezone"":""Europe/Berlin""}","8","1546.1599999997184","","","1558001189939","5","","Aachen","[]","Aachen","true","false","2388.0949999984296"
"","html-voicekey-response","15","145185","0.0-4.11-0.11","x6o4fxoxq8j796l","{""user_agent"":""Mozilla/5.0 (Macintosh; Intel Mac OS X 10_14_4) AppleWebKit/537.36 (KHTML, like Gecko) Chrome/74.0.3729.131 Safari/537.36"",""on_chrome"":true,""on_mobile"":false,""language"":""en-US"",""screen_resolution"":[1440,900],""platform"":""MacIntel"",""timezone"":""Europe/Berlin""}","8","1420.7999999997032","","","1558001192930","6","","Dresden","[]","Dresden","true","false","2247.1050000003597"
"","html-voicekey-response","16","151787","0.0-4.12-0.12","x6o4fxoxq8j796l","{""user_agent"":""Mozilla/5.0 (Macintosh; Intel Mac OS X 10_14_4) AppleWebKit/537.36 (KHTML, like Gecko) Chrome/74.0.3729.131 Safari/537.36"",""on_chrome"":true,""on_mobile"":false,""language"":""en-US"",""screen_resolution"":[1440,900],""platform"":""MacIntel"",""timezone"":""Europe/Berlin""}","8","5339.214999999798","","","1558001195779","1","","Magdeburg","[]","Magdeburg","true","false","5997.91999999978"
"","html-voicekey-response","17","154327","0.0-4.13-0.13","x6o4fxoxq8j796l","{""user_agent"":""Mozilla/5.0 (Macintosh; Intel Mac OS X 10_14_4) AppleWebKit/537.36 (KHTML, like Gecko) Chrome/74.0.3729.131 Safari/537.36"",""on_chrome"":true,""on_mobile"":false,""language"":""en-US"",""screen_resolution"":[1440,900],""platform"":""MacIntel"",""timezone"":""Europe/Berlin""}","8","1211.3250000000467","","","1558001202382","2","","Berlin","[]","Berlin","true","false","1936.3050000010699"
"","html-voicekey-response","18","157460","0.0-4.14-0.14","x6o4fxoxq8j796l","{""user_agent"":""Mozilla/5.0 (Macintosh; Intel Mac OS X 10_14_4) AppleWebKit/537.36 (KHTML, like Gecko) Chrome/74.0.3729.131 Safari/537.36"",""on_chrome"":true,""on_mobile"":false,""language"":""en-US"",""screen_resolution"":[1440,900],""platform"":""MacIntel"",""timezone"":""Europe/Berlin""}","8","1755.6050000001328","","","1558001204921","7","","Erfurt","[]","Erfurt","true","true","2530.7750000011"
"","html-voicekey-response","19","160626","0.0-4.15-0.15","x6o4fxoxq8j796l","{""user_agent"":""Mozilla/5.0 (Macintosh; Intel Mac OS X 10_14_4) AppleWebKit/537.36 (KHTML, like Gecko) Chrome/74.0.3729.131 Safari/537.36"",""on_chrome"":true,""on_mobile"":false,""language"":""en-US"",""screen_resolution"":[1440,900],""platform"":""MacIntel"",""timezone"":""Europe/Berlin""}","8","1889.7650000015624","","","1558001208054","8","","Gotha","[]","Gotha","true","true","2564.525000001595"
"","html-voicekey-response","20","168010","0.0-4.16-0.16","x6o4fxoxq8j796l","{""user_agent"":""Mozilla/5.0 (Macintosh; Intel Mac OS X 10_14_4) AppleWebKit/537.36 (KHTML, like Gecko) Chrome/74.0.3729.131 Safari/537.36"",""on_chrome"":true,""on_mobile"":false,""language"":""en-US"",""screen_resolution"":[1440,900],""platform"":""MacIntel"",""timezone"":""Europe/Berlin""}","8","6204.330000000342","","","1558001211221","7","","Erfurt","[]","Erfurt","true","false","6781.15500000061"
"","html-voicekey-response","21","171793","0.0-4.17-0.17","x6o4fxoxq8j796l","{""user_agent"":""Mozilla/5.0 (Macintosh; Intel Mac OS X 10_14_4) AppleWebKit/537.36 (KHTML, like Gecko) Chrome/74.0.3729.131 Safari/537.36"",""on_chrome"":true,""on_mobile"":false,""language"":""en-US"",""screen_resolution"":[1440,900],""platform"":""MacIntel"",""timezone"":""Europe/Berlin""}","8","1688.3999999989232","","","1558001218604","8","","Gotha","[]","Gotha","true","false","3181.160000000091"
"","html-voicekey-response","22","177027","0.0-4.18-0.18","x6o4fxoxq8j796l","{""user_agent"":""Mozilla/5.0 (Macintosh; Intel Mac OS X 10_14_4) AppleWebKit/537.36 (KHTML, like Gecko) Chrome/74.0.3729.131 Safari/537.36"",""on_chrome"":true,""on_mobile"":false,""language"":""en-US"",""screen_resolution"":[1440,900],""platform"":""MacIntel"",""timezone"":""Europe/Berlin""}","8","Infinity","","","1558001222388","3","","Ingolstadt","[]","Ingolstadt","true","false","4630.745000000374"
"","html-voicekey-response","23","179683","0.0-4.19-0.19","x6o4fxoxq8j796l","{""user_agent"":""Mozilla/5.0 (Macintosh; Intel Mac OS X 10_14_4) AppleWebKit/537.36 (KHTML, like Gecko) Chrome/74.0.3729.131 Safari/537.36"",""on_chrome"":true,""on_mobile"":false,""language"":""en-US"",""screen_resolution"":[1440,900],""platform"":""MacIntel"",""timezone"":""Europe/Berlin""}","8","1288.1049999994634","","","1558001227621","4","","Würzburg","[]","Würzburg","true","false","2054.5199999996694"
"","html-voicekey-response","24","182967","0.0-4.20-0.20","x6o4fxoxq8j796l","{""user_agent"":""Mozilla/5.0 (Macintosh; Intel Mac OS X 10_14_4) AppleWebKit/537.36 (KHTML, like Gecko) Chrome/74.0.3729.131 Safari/537.36"",""on_chrome"":true,""on_mobile"":false,""language"":""en-US"",""screen_resolution"":[1440,900],""platform"":""MacIntel"",""timezone"":""Europe/Berlin""}","8","1854.8000000008383","","","1558001230278","9","","München","[]","München","true","true","2681.435000000405"
"","html-voicekey-response","25","185967","0.0-4.21-0.21","x6o4fxoxq8j796l","{""user_agent"":""Mozilla/5.0 (Macintosh; Intel Mac OS X 10_14_4) AppleWebKit/537.36 (KHTML, like Gecko) Chrome/74.0.3729.131 Safari/537.36"",""on_chrome"":true,""on_mobile"":false,""language"":""en-US"",""screen_resolution"":[1440,900],""platform"":""MacIntel"",""timezone"":""Europe/Berlin""}","8","1371.0399999998394","","","1558001233562","1","","Magdeburg","[]","Magdeburg","true","false","2397.290000000794"
"","html-voicekey-response","26","201816","0.0-4.22-0.22","x6o4fxoxq8j796l","{""user_agent"":""Mozilla/5.0 (Macintosh; Intel Mac OS X 10_14_4) AppleWebKit/537.36 (KHTML, like Gecko) Chrome/74.0.3729.131 Safari/537.36"",""on_chrome"":true,""on_mobile"":false,""language"":""en-US"",""screen_resolution"":[1440,900],""platform"":""MacIntel"",""timezone"":""Europe/Berlin""}","8","14388.255000001494","","","1558001236562","9","","München","[]","München","true","false","15246.150000000838"
"","html-voicekey-response","27","204798","0.0-4.23-0.23","x6o4fxoxq8j796l","{""user_agent"":""Mozilla/5.0 (Macintosh; Intel Mac OS X 10_14_4) AppleWebKit/537.36 (KHTML, like Gecko) Chrome/74.0.3729.131 Safari/537.36"",""on_chrome"":true,""on_mobile"":false,""language"":""en-US"",""screen_resolution"":[1440,900],""platform"":""MacIntel"",""timezone"":""Europe/Berlin""}","8","1469.3100000002364","","","1558001252411","6","","Dresden","[]","Dresden","true","false","2378.550000001269"
"","html-voicekey-response","28","207515","0.0-4.24-0.24","x6o4fxoxq8j796l","{""user_agent"":""Mozilla/5.0 (Macintosh; Intel Mac OS X 10_14_4) AppleWebKit/537.36 (KHTML, like Gecko) Chrome/74.0.3729.131 Safari/537.36"",""on_chrome"":true,""on_mobile"":false,""language"":""en-US"",""screen_resolution"":[1440,900],""platform"":""MacIntel"",""timezone"":""Europe/Berlin""}","8","1387.8800000000688","","","1558001255392","5","","Aachen","[]","Aachen","true","false","2113.7349999989965"
"","html-voicekey-response","29","210215","0.0-4.25-0.25","x6o4fxoxq8j796l","{""user_agent"":""Mozilla/5.0 (Macintosh; Intel Mac OS X 10_14_4) AppleWebKit/537.36 (KHTML, like Gecko) Chrome/74.0.3729.131 Safari/537.36"",""on_chrome"":true,""on_mobile"":false,""language"":""en-US"",""screen_resolution"":[1440,900],""platform"":""MacIntel"",""timezone"":""Europe/Berlin""}","8","1236.6350000009757","","","1558001258111","7","","Erfurt","[]","Erfurt","true","false","2095.274999999674"
"","html-voicekey-response","30","217282","0.0-4.26-0.26","x6o4fxoxq8j796l","{""user_agent"":""Mozilla/5.0 (Macintosh; Intel Mac OS X 10_14_4) AppleWebKit/537.36 (KHTML, like Gecko) Chrome/74.0.3729.131 Safari/537.36"",""on_chrome"":true,""on_mobile"":false,""language"":""en-US"",""screen_resolution"":[1440,900],""platform"":""MacIntel"",""timezone"":""Europe/Berlin""}","8","3087.8150000006194","","","1558001260809","10","","Heidelberg","[]","Heidelberg","true","true","6463.2849999998"
"","html-voicekey-response","31","224863","0.0-4.27-0.27","x6o4fxoxq8j796l","{""user_agent"":""Mozilla/5.0 (Macintosh; Intel Mac OS X 10_14_4) AppleWebKit/537.36 (KHTML, like Gecko) Chrome/74.0.3729.131 Safari/537.36"",""on_chrome"":true,""on_mobile"":false,""language"":""en-US"",""screen_resolution"":[1440,900],""platform"":""MacIntel"",""timezone"":""Europe/Berlin""}","8","6233.229999999667","","","1558001267876","3","","Ingolstadt","[]","Ingolstadt","true","false","6975.645000000426"
"","html-voicekey-response","32","229584","0.0-4.28-0.28","x6o4fxoxq8j796l","{""user_agent"":""Mozilla/5.0 (Macintosh; Intel Mac OS X 10_14_4) AppleWebKit/537.36 (KHTML, like Gecko) Chrome/74.0.3729.131 Safari/537.36"",""on_chrome"":true,""on_mobile"":false,""language"":""en-US"",""screen_resolution"":[1440,900],""platform"":""MacIntel"",""timezone"":""Europe/Berlin""}","8","3210.614999999793","","","1558001275458","10","","Heidelberg","[]","Heidelberg","true","false","4117.30499999976"
"","html-voicekey-response","33","232351","0.0-4.29-0.29","x6o4fxoxq8j796l","{""user_agent"":""Mozilla/5.0 (Macintosh; Intel Mac OS X 10_14_4) AppleWebKit/537.36 (KHTML, like Gecko) Chrome/74.0.3729.131 Safari/537.36"",""on_chrome"":true,""on_mobile"":false,""language"":""en-US"",""screen_resolution"":[1440,900],""platform"":""MacIntel"",""timezone"":""Europe/Berlin""}","8","1336.5899999988092","","","1558001280180","8","","Gotha","[]","Gotha","true","false","2162.7199999984296"
"","html-voicekey-response","34","234950","0.0-4.30-0.30","x6o4fxoxq8j796l","{""user_agent"":""Mozilla/5.0 (Macintosh; Intel Mac OS X 10_14_4) AppleWebKit/537.36 (KHTML, like Gecko) Chrome/74.0.3729.131 Safari/537.36"",""on_chrome"":true,""on_mobile"":false,""language"":""en-US"",""screen_resolution"":[1440,900],""platform"":""MacIntel"",""timezone"":""Europe/Berlin""}","8","1102.8949999998208","","","1558001282947","9","","München","[]","München","true","false","1995.0250000001397"
"","html-voicekey-response","35","239341","0.0-4.31-0.31","x6o4fxoxq8j796l","{""user_agent"":""Mozilla/5.0 (Macintosh; Intel Mac OS X 10_14_4) AppleWebKit/537.36 (KHTML, like Gecko) Chrome/74.0.3729.131 Safari/537.36"",""on_chrome"":true,""on_mobile"":false,""language"":""en-US"",""screen_resolution"":[1440,900],""platform"":""MacIntel"",""timezone"":""Europe/Berlin""}","8","2662.3350000007545","","","1558001285546","11","","Alfeld","[]","Alfeld","true","true","3786.780000000377"
"","html-voicekey-response","36","242325","0.0-4.32-0.32","x6o4fxoxq8j796l","{""user_agent"":""Mozilla/5.0 (Macintosh; Intel Mac OS X 10_14_4) AppleWebKit/537.36 (KHTML, like Gecko) Chrome/74.0.3729.131 Safari/537.36"",""on_chrome"":true,""on_mobile"":false,""language"":""en-US"",""screen_resolution"":[1440,900],""platform"":""MacIntel"",""timezone"":""Europe/Berlin""}","8","1621.4100000014064","","","1558001289936","12","","Dessau","[]","Dessau","true","true","2380.970000000176"
"","html-voicekey-response","37","245474","0.0-4.33-0.33","x6o4fxoxq8j796l","{""user_agent"":""Mozilla/5.0 (Macintosh; Intel Mac OS X 10_14_4) AppleWebKit/537.36 (KHTML, like Gecko) Chrome/74.0.3729.131 Safari/537.36"",""on_chrome"":true,""on_mobile"":false,""language"":""en-US"",""screen_resolution"":[1440,900],""platform"":""MacIntel"",""timezone"":""Europe/Berlin""}","8","1538.3549999986194","","","1558001292920","11","","Alfeld","[]","Alfeld","true","false","2546.809999999823"
"","html-voicekey-response","38","247799","0.0-4.34-0.34","x6o4fxoxq8j796l","{""user_agent"":""Mozilla/5.0 (Macintosh; Intel Mac OS X 10_14_4) AppleWebKit/537.36 (KHTML, like Gecko) Chrome/74.0.3729.131 Safari/537.36"",""on_chrome"":true,""on_mobile"":false,""language"":""en-US"",""screen_resolution"":[1440,900],""platform"":""MacIntel"",""timezone"":""Europe/Berlin""}","8","930.6749999994412","","","1558001296069","12","","Dessau","[]","Dessau","true","false","1721.664999999106"
"","html-voicekey-response","39","253132","0.0-4.35-0.35","x6o4fxoxq8j796l","{""user_agent"":""Mozilla/5.0 (Macintosh; Intel Mac OS X 10_14_4) AppleWebKit/537.36 (KHTML, like Gecko) Chrome/74.0.3729.131 Safari/537.36"",""on_chrome"":true,""on_mobile"":false,""language"":""en-US"",""screen_resolution"":[1440,900],""platform"":""MacIntel"",""timezone"":""Europe/Berlin""}","8","4004.8800000002725","","","1558001298394","3","","Ingolstadt","[]","Ingolstadt","true","false","4730.57000000152"
"","html-voicekey-response","40","255866","0.0-4.36-0.36","x6o4fxoxq8j796l","{""user_agent"":""Mozilla/5.0 (Macintosh; Intel Mac OS X 10_14_4) AppleWebKit/537.36 (KHTML, like Gecko) Chrome/74.0.3729.131 Safari/537.36"",""on_chrome"":true,""on_mobile"":false,""language"":""en-US"",""screen_resolution"":[1440,900],""platform"":""MacIntel"",""timezone"":""Europe/Berlin""}","8","1455.6100000007486","","","1558001303728","13","","Chemnitz","[]","Chemnitz","true","true","2130.685000000085"
"","html-voicekey-response","41","261958","0.0-4.37-0.37","x6o4fxoxq8j796l","{""user_agent"":""Mozilla/5.0 (Macintosh; Intel Mac OS X 10_14_4) AppleWebKit/537.36 (KHTML, like Gecko) Chrome/74.0.3729.131 Safari/537.36"",""on_chrome"":true,""on_mobile"":false,""language"":""en-US"",""screen_resolution"":[1440,900],""platform"":""MacIntel"",""timezone"":""Europe/Berlin""}","8","4897.280000000877","","","1558001306461","14","","Potsdam","[]","Potsdam","true","true","5489.115000000311"
"","html-voicekey-response","42","270627","0.0-4.38-0.38","x6o4fxoxq8j796l","{""user_agent"":""Mozilla/5.0 (Macintosh; Intel Mac OS X 10_14_4) AppleWebKit/537.36 (KHTML, like Gecko) Chrome/74.0.3729.131 Safari/537.36"",""on_chrome"":true,""on_mobile"":false,""language"":""en-US"",""screen_resolution"":[1440,900],""platform"":""MacIntel"",""timezone"":""Europe/Berlin""}","8","2188.0600000002655","","","1558001312553","13","","","[]","Chemnitz","false","false","4664.08500000037"
"","html-voicekey-response","43","273481","0.0-4.39-0.39","x6o4fxoxq8j796l","{""user_agent"":""Mozilla/5.0 (Macintosh; Intel Mac OS X 10_14_4) AppleWebKit/537.36 (KHTML, like Gecko) Chrome/74.0.3729.131 Safari/537.36"",""on_chrome"":true,""on_mobile"":false,""language"":""en-US"",""screen_resolution"":[1440,900],""platform"":""MacIntel"",""timezone"":""Europe/Berlin""}","8","308.289999998908","","","1558001321222","14","","Potsdam","[]","Potsdam","true","false","2251.4899999987683"
"","html-voicekey-response","44","278765","0.0-4.40-0.40","x6o4fxoxq8j796l","{""user_agent"":""Mozilla/5.0 (Macintosh; Intel Mac OS X 10_14_4) AppleWebKit/537.36 (KHTML, like Gecko) Chrome/74.0.3729.131 Safari/537.36"",""on_chrome"":true,""on_mobile"":false,""language"":""en-US"",""screen_resolution"":[1440,900],""platform"":""MacIntel"",""timezone"":""Europe/Berlin""}","8","3921.4100000006497","","","1558001324076","3","","Ingolstadt","[]","Ingolstadt","true","false","4680.190000000934"
"","html-voicekey-response","45","281526","0.0-4.41-0.41","x6o4fxoxq8j796l","{""user_agent"":""Mozilla/5.0 (Macintosh; Intel Mac OS X 10_14_4) AppleWebKit/537.36 (KHTML, like Gecko) Chrome/74.0.3729.131 Safari/537.36"",""on_chrome"":true,""on_mobile"":false,""language"":""en-US"",""screen_resolution"":[1440,900],""platform"":""MacIntel"",""timezone"":""Europe/Berlin""}","8","1481.2550000004471","","","1558001329361","1","","Magdeburg","[]","Magdeburg","true","false","2157.035000000149"
"","html-voicekey-response","46","285308","0.0-4.42-0.42","x6o4fxoxq8j796l","{""user_agent"":""Mozilla/5.0 (Macintosh; Intel Mac OS X 10_14_4) AppleWebKit/537.36 (KHTML, like Gecko) Chrome/74.0.3729.131 Safari/537.36"",""on_chrome"":true,""on_mobile"":false,""language"":""en-US"",""screen_resolution"":[1440,900],""platform"":""MacIntel"",""timezone"":""Europe/Berlin""}","8","2201.624999999511","","","1558001332124","10","","Heidelberg","[]","Heidelberg","true","false","3175.8599999993457"
"","html-voicekey-response","47","288692","0.0-4.43-0.43","x6o4fxoxq8j796l","{""user_agent"":""Mozilla/5.0 (Macintosh; Intel Mac OS X 10_14_4) AppleWebKit/537.36 (KHTML, like Gecko) Chrome/74.0.3729.131 Safari/537.36"",""on_chrome"":true,""on_mobile"":false,""language"":""en-US"",""screen_resolution"":[1440,900],""platform"":""MacIntel"",""timezone"":""Europe/Berlin""}","8","1587.9500000008616","","","1558001335904","15","","Nürnberg","[]","Nürnberg","true","true","2779.810000000056"
"","html-voicekey-response","48","296715","0.0-4.44-0.44","x6o4fxoxq8j796l","{""user_agent"":""Mozilla/5.0 (Macintosh; Intel Mac OS X 10_14_4) AppleWebKit/537.36 (KHTML, like Gecko) Chrome/74.0.3729.131 Safari/537.36"",""on_chrome"":true,""on_mobile"":false,""language"":""en-US"",""screen_resolution"":[1440,900],""platform"":""MacIntel"",""timezone"":""Europe/Berlin""}","8","2594.3000000005472","","","1558001339287","11","","","[]","Alfeld","false","false","4019.8600000003353"
"","html-voicekey-response","49","313366","0.0-4.45-0.45","x6o4fxoxq8j796l","{""user_agent"":""Mozilla/5.0 (Macintosh; Intel Mac OS X 10_14_4) AppleWebKit/537.36 (KHTML, like Gecko) Chrome/74.0.3729.131 Safari/537.36"",""on_chrome"":true,""on_mobile"":false,""language"":""en-US"",""screen_resolution"":[1440,900],""platform"":""MacIntel"",""timezone"":""Europe/Berlin""}","8","7403.825000001094","","","1558001347311","15","","","[]","Nürnberg","false","false","12645.47000000131"
"","html-voicekey-response","50","326244","0.0-4.46-0.46","x6o4fxoxq8j796l","{""user_agent"":""Mozilla/5.0 (Macintosh; Intel Mac OS X 10_14_4) AppleWebKit/537.36 (KHTML, like Gecko) Chrome/74.0.3729.131 Safari/537.36"",""on_chrome"":true,""on_mobile"":false,""language"":""en-US"",""screen_resolution"":[1440,900],""platform"":""MacIntel"",""timezone"":""Europe/Berlin""}","8","8013.870000000496","","","1558001363962","12","","","[]","Dessau","false","false","8872.119999999995"
"","html-voicekey-response","51","336473","0.0-4.47-0.47","x6o4fxoxq8j796l","{""user_agent"":""Mozilla/5.0 (Macintosh; Intel Mac OS X 10_14_4) AppleWebKit/537.36 (KHTML, like Gecko) Chrome/74.0.3729.131 Safari/537.36"",""on_chrome"":true,""on_mobile"":false,""language"":""en-US"",""screen_resolution"":[1440,900],""platform"":""MacIntel"",""timezone"":""Europe/Berlin""}","8","5430.904999999131","","","1558001376839","3","","","[]","Ingolstadt","false","false","6223.869999999821"
"","html-voicekey-response","52","339729","0.0-4.48-0.48","x6o4fxoxq8j796l","{""user_agent"":""Mozilla/5.0 (Macintosh; Intel Mac OS X 10_14_4) AppleWebKit/537.36 (KHTML, like Gecko) Chrome/74.0.3729.131 Safari/537.36"",""on_chrome"":true,""on_mobile"":false,""language"":""en-US"",""screen_resolution"":[1440,900],""platform"":""MacIntel"",""timezone"":""Europe/Berlin""}","8","1994.4499999999884","","","1558001387068","13","","Chemnitz","[]","Chemnitz","true","false","2653.0999999995693"
"","html-voicekey-response","53","345013","0.0-4.49-0.49","x6o4fxoxq8j796l","{""user_agent"":""Mozilla/5.0 (Macintosh; Intel Mac OS X 10_14_4) AppleWebKit/537.36 (KHTML, like Gecko) Chrome/74.0.3729.131 Safari/537.36"",""on_chrome"":true,""on_mobile"":false,""language"":""en-US"",""screen_resolution"":[1440,900],""platform"":""MacIntel"",""timezone"":""Europe/Berlin""}","8","4005.0749999989407","","","1558001390324","3","","Ingolstadt","[]","Ingolstadt","true","false","4680.1349999986705"
"","html-voicekey-response","54","348007","0.0-4.50-0.50","x6o4fxoxq8j796l","{""user_agent"":""Mozilla/5.0 (Macintosh; Intel Mac OS X 10_14_4) AppleWebKit/537.36 (KHTML, like Gecko) Chrome/74.0.3729.131 Safari/537.36"",""on_chrome"":true,""on_mobile"":false,""language"":""en-US"",""screen_resolution"":[1440,900],""platform"":""MacIntel"",""timezone"":""Europe/Berlin""}","8","1750.2599999987638","","","1558001395608","14","","Potsdam","[]","Potsdam","true","false","2391.724999999511"
"","html-voicekey-response","55","351657","0.0-4.51-0.51","x6o4fxoxq8j796l","{""user_agent"":""Mozilla/5.0 (Macintosh; Intel Mac OS X 10_14_4) AppleWebKit/537.36 (KHTML, like Gecko) Chrome/74.0.3729.131 Safari/537.36"",""on_chrome"":true,""on_mobile"":false,""language"":""en-US"",""screen_resolution"":[1440,900],""platform"":""MacIntel"",""timezone"":""Europe/Berlin""}","8","2154.9799999991433","","","1558001398602","11","","Alfeld","[]","Alfeld","true","false","3047.284999998752"
"","html-voicekey-response","56","354993","0.0-4.52-0.52","x6o4fxoxq8j796l","{""user_agent"":""Mozilla/5.0 (Macintosh; Intel Mac OS X 10_14_4) AppleWebKit/537.36 (KHTML, like Gecko) Chrome/74.0.3729.131 Safari/537.36"",""on_chrome"":true,""on_mobile"":false,""language"":""en-US"",""screen_resolution"":[1440,900],""platform"":""MacIntel"",""timezone"":""Europe/Berlin""}","8","2121.1999999994064","","","1558001402252","15","","Nürnberg","[]","Nürnberg","true","false","2730.439999999362"
"","html-voicekey-response","57","358483","0.0-4.53-0.53","x6o4fxoxq8j796l","{""user_agent"":""Mozilla/5.0 (Macintosh; Intel Mac OS X 10_14_4) AppleWebKit/537.36 (KHTML, like Gecko) Chrome/74.0.3729.131 Safari/537.36"",""on_chrome"":true,""on_mobile"":false,""language"":""en-US"",""screen_resolution"":[1440,900],""platform"":""MacIntel"",""timezone"":""Europe/Berlin""}","8","1827.5449999999605","","","1558001405588","3","","Ingolstadt","[]","Ingolstadt","true","false","2886.8149999998277"
"","html-voicekey-response","58","362398","0.0-4.54-0.54","x6o4fxoxq8j796l","{""user_agent"":""Mozilla/5.0 (Macintosh; Intel Mac OS X 10_14_4) AppleWebKit/537.36 (KHTML, like Gecko) Chrome/74.0.3729.131 Safari/537.36"",""on_chrome"":true,""on_mobile"":false,""language"":""en-US"",""screen_resolution"":[1440,900],""platform"":""MacIntel"",""timezone"":""Europe/Berlin""}","8","2536.974999998906","","","1558001409078","12","","Dessau","[]","Dessau","true","false","3312.2949999996927"
"","html-voicekey-response","59","366733","0.0-4.55-0.55","x6o4fxoxq8j796l","{""user_agent"":""Mozilla/5.0 (Macintosh; Intel Mac OS X 10_14_4) AppleWebKit/537.36 (KHTML, like Gecko) Chrome/74.0.3729.131 Safari/537.36"",""on_chrome"":true,""on_mobile"":false,""language"":""en-US"",""screen_resolution"":[1440,900],""platform"":""MacIntel"",""timezone"":""Europe/Berlin""}","8","2738.7350000006613","","","1558001412993","16","","Schwangau","[]","Schwangau","true","true","3729.989999999758"
"","html-voicekey-response","60","369940","0.0-4.56-0.56","x6o4fxoxq8j796l","{""user_agent"":""Mozilla/5.0 (Macintosh; Intel Mac OS X 10_14_4) AppleWebKit/537.36 (KHTML, like Gecko) Chrome/74.0.3729.131 Safari/537.36"",""on_chrome"":true,""on_mobile"":false,""language"":""en-US"",""screen_resolution"":[1440,900],""platform"":""MacIntel"",""timezone"":""Europe/Berlin""}","8","1727.6199999995065","","","1558001417328","17","","Leipzig","[]","Leipzig","true","true","2603.7649999998393"
"","html-voicekey-response","61","373756","0.0-4.57-0.57","x6o4fxoxq8j796l","{""user_agent"":""Mozilla/5.0 (Macintosh; Intel Mac OS X 10_14_4) AppleWebKit/537.36 (KHTML, like Gecko) Chrome/74.0.3729.131 Safari/537.36"",""on_chrome"":true,""on_mobile"":false,""language"":""en-US"",""screen_resolution"":[1440,900],""platform"":""MacIntel"",""timezone"":""Europe/Berlin""}","8","2420.495000000147","","","1558001420535","16","","Schwangau","[]","Schwangau","true","false","3213.170000000915"
"","html-voicekey-response","62","376023","0.0-4.58-0.58","x6o4fxoxq8j796l","{""user_agent"":""Mozilla/5.0 (Macintosh; Intel Mac OS X 10_14_4) AppleWebKit/537.36 (KHTML, like Gecko) Chrome/74.0.3729.131 Safari/537.36"",""on_chrome"":true,""on_mobile"":false,""language"":""en-US"",""screen_resolution"":[1440,900],""platform"":""MacIntel"",""timezone"":""Europe/Berlin""}","8","1021.2599999994039","","","1558001424351","17","","Leipzig","[]","Leipzig","true","false","1663.5449999994598"
"","html-voicekey-response","63","379298","0.0-4.59-0.59","x6o4fxoxq8j796l","{""user_agent"":""Mozilla/5.0 (Macintosh; Intel Mac OS X 10_14_4) AppleWebKit/537.36 (KHTML, like Gecko) Chrome/74.0.3729.131 Safari/537.36"",""on_chrome"":true,""on_mobile"":false,""language"":""en-US"",""screen_resolution"":[1440,900],""platform"":""MacIntel"",""timezone"":""Europe/Berlin""}","8","1745.2499999998022","","","1558001426619","3","","Ingolstadt","[]","Ingolstadt","true","false","2671.2899999984074"
"","html-voicekey-response","64","382698","0.0-4.60-0.60","x6o4fxoxq8j796l","{""user_agent"":""Mozilla/5.0 (Macintosh; Intel Mac OS X 10_14_4) AppleWebKit/537.36 (KHTML, like Gecko) Chrome/74.0.3729.131 Safari/537.36"",""on_chrome"":true,""on_mobile"":false,""language"":""en-US"",""screen_resolution"":[1440,900],""platform"":""MacIntel"",""timezone"":""Europe/Berlin""}","8","2087.3049999989803","","","1558001429893","18","","Forchheim","[]","Forchheim","true","true","2796.7749999989173"
"","html-voicekey-response","65","385948","0.0-4.61-0.61","x6o4fxoxq8j796l","{""user_agent"":""Mozilla/5.0 (Macintosh; Intel Mac OS X 10_14_4) AppleWebKit/537.36 (KHTML, like Gecko) Chrome/74.0.3729.131 Safari/537.36"",""on_chrome"":true,""on_mobile"":false,""language"":""en-US"",""screen_resolution"":[1440,900],""platform"":""MacIntel"",""timezone"":""Europe/Berlin""}","8","1737.4349999989267","","","1558001433293","19","","Frankfurt","[]","Frankfurt","true","true","2646.989999999292"
"","html-voicekey-response","66","388789","0.0-4.62-0.62","x6o4fxoxq8j796l","{""user_agent"":""Mozilla/5.0 (Macintosh; Intel Mac OS X 10_14_4) AppleWebKit/537.36 (KHTML, like Gecko) Chrome/74.0.3729.131 Safari/537.36"",""on_chrome"":true,""on_mobile"":false,""language"":""en-US"",""screen_resolution"":[1440,900],""platform"":""MacIntel"",""timezone"":""Europe/Berlin""}","8","1537.5849999998813","","","1558001436543","18","","Forchheim","[]","Forchheim","true","false","2237.8349999999045"
"","html-voicekey-response","67","391139","0.0-4.63-0.63","x6o4fxoxq8j796l","{""user_agent"":""Mozilla/5.0 (Macintosh; Intel Mac OS X 10_14_4) AppleWebKit/537.36 (KHTML, like Gecko) Chrome/74.0.3729.131 Safari/537.36"",""on_chrome"":true,""on_mobile"":false,""language"":""en-US"",""screen_resolution"":[1440,900],""platform"":""MacIntel"",""timezone"":""Europe/Berlin""}","8","920.9249999983352","","","1558001439385","19","","Frankfurt","[]","Frankfurt","true","false","1746.1499999989755"
"","html-voicekey-response","68","393838","0.0-4.64-0.64","x6o4fxoxq8j796l","{""user_agent"":""Mozilla/5.0 (Macintosh; Intel Mac OS X 10_14_4) AppleWebKit/537.36 (KHTML, like Gecko) Chrome/74.0.3729.131 Safari/537.36"",""on_chrome"":true,""on_mobile"":false,""language"":""en-US"",""screen_resolution"":[1440,900],""platform"":""MacIntel"",""timezone"":""Europe/Berlin""}","8","1337.699999999872","","","1558001441734","20","","Hamburg ","[]","Hamburg ","true","true","2095.9800000000396"
"","html-voicekey-response","69","397522","0.0-4.65-0.65","x6o4fxoxq8j796l","{""user_agent"":""Mozilla/5.0 (Macintosh; Intel Mac OS X 10_14_4) AppleWebKit/537.36 (KHTML, like Gecko) Chrome/74.0.3729.131 Safari/537.36"",""on_chrome"":true,""on_mobile"":false,""language"":""en-US"",""screen_resolution"":[1440,900],""platform"":""MacIntel"",""timezone"":""Europe/Berlin""}","8","1869.8450000009384","","","1558001444436","21","","Konstanz","[]","Konstanz","true","true","3078.385000000708"
"","html-voicekey-response","70","400831","0.0-4.66-0.66","x6o4fxoxq8j796l","{""user_agent"":""Mozilla/5.0 (Macintosh; Intel Mac OS X 10_14_4) AppleWebKit/537.36 (KHTML, like Gecko) Chrome/74.0.3729.131 Safari/537.36"",""on_chrome"":true,""on_mobile"":false,""language"":""en-US"",""screen_resolution"":[1440,900],""platform"":""MacIntel"",""timezone"":""Europe/Berlin""}","8","1911.7100000001724","","","1558001448119","20","","Hamburg ","[]","Hamburg ","true","false","2704.260000000475"
"","html-voicekey-response","71","403249","0.0-4.67-0.67","x6o4fxoxq8j796l","{""user_agent"":""Mozilla/5.0 (Macintosh; Intel Mac OS X 10_14_4) AppleWebKit/537.36 (KHTML, like Gecko) Chrome/74.0.3729.131 Safari/537.36"",""on_chrome"":true,""on_mobile"":false,""language"":""en-US"",""screen_resolution"":[1440,900],""platform"":""MacIntel"",""timezone"":""Europe/Berlin""}","8","1054.5149999996415","","","1558001451426","21","","Konstanz","[]","Konstanz","true","false","1814.2950000001001"
"","html-voicekey-response","72","406381","0.0-4.68-0.68","x6o4fxoxq8j796l","{""user_agent"":""Mozilla/5.0 (Macintosh; Intel Mac OS X 10_14_4) AppleWebKit/537.36 (KHTML, like Gecko) Chrome/74.0.3729.131 Safari/537.36"",""on_chrome"":true,""on_mobile"":false,""language"":""en-US"",""screen_resolution"":[1440,900],""platform"":""MacIntel"",""timezone"":""Europe/Berlin""}","8","1670.1599999995437","","","1558001453844","3","","Ingolstadt","[]","Ingolstadt","true","false","2529.6799999996438"
"","html-voicekey-response","73","408597","0.0-4.69-0.69","x6o4fxoxq8j796l","{""user_agent"":""Mozilla/5.0 (Macintosh; Intel Mac OS X 10_14_4) AppleWebKit/537.36 (KHTML, like Gecko) Chrome/74.0.3729.131 Safari/537.36"",""on_chrome"":true,""on_mobile"":false,""language"":""en-US"",""screen_resolution"":[1440,900],""platform"":""MacIntel"",""timezone"":""Europe/Berlin""}","8","1186.9800000002492","","","1558001456977","2","","Berlin","[]","Berlin","true","false","1612.4749999999185"
"","html-voicekey-response","74","411894","0.0-4.70-0.70","x6o4fxoxq8j796l","{""user_agent"":""Mozilla/5.0 (Macintosh; Intel Mac OS X 10_14_4) AppleWebKit/537.36 (KHTML, like Gecko) Chrome/74.0.3729.131 Safari/537.36"",""on_chrome"":true,""on_mobile"":false,""language"":""en-US"",""screen_resolution"":[1440,900],""platform"":""MacIntel"",""timezone"":""Europe/Berlin""}","8","1933.7049999992946","","","1558001459192","22","","Bamberg","[]","Bamberg","true","true","2693.0649999994785"
"","html-voicekey-response","75","415526","0.0-4.71-0.71","x6o4fxoxq8j796l","{""user_agent"":""Mozilla/5.0 (Macintosh; Intel Mac OS X 10_14_4) AppleWebKit/537.36 (KHTML, like Gecko) Chrome/74.0.3729.131 Safari/537.36"",""on_chrome"":true,""on_mobile"":false,""language"":""en-US"",""screen_resolution"":[1440,900],""platform"":""MacIntel"",""timezone"":""Europe/Berlin""}","8","2253.500000000559","","","1558001462489","23","","Stuttgart","[]","Stuttgart","true","true","3028.585000000021"
"","html-voicekey-response","76","425793","0.0-4.72-0.72","x6o4fxoxq8j796l","{""user_agent"":""Mozilla/5.0 (Macintosh; Intel Mac OS X 10_14_4) AppleWebKit/537.36 (KHTML, like Gecko) Chrome/74.0.3729.131 Safari/537.36"",""on_chrome"":true,""on_mobile"":false,""language"":""en-US"",""screen_resolution"":[1440,900],""platform"":""MacIntel"",""timezone"":""Europe/Berlin""}","8","4886.5350000012895","","","1558001466121","22","","","[]","Bamberg","false","false","6263.3050000004005"
"","html-voicekey-response","77","430983","0.0-4.73-0.73","x6o4fxoxq8j796l","{""user_agent"":""Mozilla/5.0 (Macintosh; Intel Mac OS X 10_14_4) AppleWebKit/537.36 (KHTML, like Gecko) Chrome/74.0.3729.131 Safari/537.36"",""on_chrome"":true,""on_mobile"":false,""language"":""en-US"",""screen_resolution"":[1440,900],""platform"":""MacIntel"",""timezone"":""Europe/Berlin""}","8","1961.2300000006567","","","1558001476389","23","","Stuttgart","[]","Stuttgart","true","false","4585.974999999977"
"","html-voicekey-response","78","433808","0.0-4.74-0.74","x6o4fxoxq8j796l","{""user_agent"":""Mozilla/5.0 (Macintosh; Intel Mac OS X 10_14_4) AppleWebKit/537.36 (KHTML, like Gecko) Chrome/74.0.3729.131 Safari/537.36"",""on_chrome"":true,""on_mobile"":false,""language"":""en-US"",""screen_resolution"":[1440,900],""platform"":""MacIntel"",""timezone"":""Europe/Berlin""}","8","1436.999999999744","","","1558001481579","16","","Schwangau","[]","Schwangau","true","false","2221.7149999996764"
"","html-voicekey-response","79","436441","0.0-4.75-0.75","x6o4fxoxq8j796l","{""user_agent"":""Mozilla/5.0 (Macintosh; Intel Mac OS X 10_14_4) AppleWebKit/537.36 (KHTML, like Gecko) Chrome/74.0.3729.131 Safari/537.36"",""on_chrome"":true,""on_mobile"":false,""language"":""en-US"",""screen_resolution"":[1440,900],""platform"":""MacIntel"",""timezone"":""Europe/Berlin""}","8","1136.879999999865","","","1558001484404","17","","Leipzig","[]","Leipzig","true","false","2029.250000001397"
"","html-voicekey-response","80","439591","0.0-4.76-0.76","x6o4fxoxq8j796l","{""user_agent"":""Mozilla/5.0 (Macintosh; Intel Mac OS X 10_14_4) AppleWebKit/537.36 (KHTML, like Gecko) Chrome/74.0.3729.131 Safari/537.36"",""on_chrome"":true,""on_mobile"":false,""language"":""en-US"",""screen_resolution"":[1440,900],""platform"":""MacIntel"",""timezone"":""Europe/Berlin""}","8","1720.1199999997975","","","1558001487038","12","","Dessau","[]","Dessau","true","false","2545.710000000312"
"","html-voicekey-response","81","447859","0.0-4.77-0.77","x6o4fxoxq8j796l","{""user_agent"":""Mozilla/5.0 (Macintosh; Intel Mac OS X 10_14_4) AppleWebKit/537.36 (KHTML, like Gecko) Chrome/74.0.3729.131 Safari/537.36"",""on_chrome"":true,""on_mobile"":false,""language"":""en-US"",""screen_resolution"":[1440,900],""platform"":""MacIntel"",""timezone"":""Europe/Berlin""}","8","3437.384999999113","","","1558001490187","18","","","[]","Forchheim","false","false","4263.189999999653"
"","html-voicekey-response","82","452070","0.0-4.78-0.78","x6o4fxoxq8j796l","{""user_agent"":""Mozilla/5.0 (Macintosh; Intel Mac OS X 10_14_4) AppleWebKit/537.36 (KHTML, like Gecko) Chrome/74.0.3729.131 Safari/537.36"",""on_chrome"":true,""on_mobile"":false,""language"":""en-US"",""screen_resolution"":[1440,900],""platform"":""MacIntel"",""timezone"":""Europe/Berlin""}","8","2448.5750000002213","","","1558001498455","3","","Ingolstadt","[]","Ingolstadt","true","false","3607.8949999992037"
"","html-voicekey-response","83","454872","0.0-4.79-0.79","x6o4fxoxq8j796l","{""user_agent"":""Mozilla/5.0 (Macintosh; Intel Mac OS X 10_14_4) AppleWebKit/537.36 (KHTML, like Gecko) Chrome/74.0.3729.131 Safari/537.36"",""on_chrome"":true,""on_mobile"":false,""language"":""en-US"",""screen_resolution"":[1440,900],""platform"":""MacIntel"",""timezone"":""Europe/Berlin""}","8","1487.6099999999628","","","1558001502666","19","","Frankfurt","[]","Frankfurt","true","false","2196.3549999999814"
"","html-voicekey-response","84","457396","0.0-4.80-0.80","x6o4fxoxq8j796l","{""user_agent"":""Mozilla/5.0 (Macintosh; Intel Mac OS X 10_14_4) AppleWebKit/537.36 (KHTML, like Gecko) Chrome/74.0.3729.131 Safari/537.36"",""on_chrome"":true,""on_mobile"":false,""language"":""en-US"",""screen_resolution"":[1440,900],""platform"":""MacIntel"",""timezone"":""Europe/Berlin""}","8","1146.3950000013924","","","1558001505467","20","","Hamburg ","[]","Hamburg ","true","false","1921.305000001681"
"","html-voicekey-response","85","470131","0.0-4.81-0.81","x6o4fxoxq8j796l","{""user_agent"":""Mozilla/5.0 (Macintosh; Intel Mac OS X 10_14_4) AppleWebKit/537.36 (KHTML, like Gecko) Chrome/74.0.3729.131 Safari/537.36"",""on_chrome"":true,""on_mobile"":false,""language"":""en-US"",""screen_resolution"":[1440,900],""platform"":""MacIntel"",""timezone"":""Europe/Berlin""}","8","7886.285000000358","","","1558001507993","21","","","[]","Konstanz","false","false","8729.19000000006"
"","html-voicekey-response","86","477821","0.0-4.82-0.82","x6o4fxoxq8j796l","{""user_agent"":""Mozilla/5.0 (Macintosh; Intel Mac OS X 10_14_4) AppleWebKit/537.36 (KHTML, like Gecko) Chrome/74.0.3729.131 Safari/537.36"",""on_chrome"":true,""on_mobile"":false,""language"":""en-US"",""screen_resolution"":[1440,900],""platform"":""MacIntel"",""timezone"":""Europe/Berlin""}","8","2558.034999999893","","","1558001520729","22","","","[]","Bamberg","false","false","3683.510000000766"
"","html-voicekey-response","87","484267","0.0-4.83-0.83","x6o4fxoxq8j796l","{""user_agent"":""Mozilla/5.0 (Macintosh; Intel Mac OS X 10_14_4) AppleWebKit/537.36 (KHTML, like Gecko) Chrome/74.0.3729.131 Safari/537.36"",""on_chrome"":true,""on_mobile"":false,""language"":""en-US"",""screen_resolution"":[1440,900],""platform"":""MacIntel"",""timezone"":""Europe/Berlin""}","8","1303.9900000001421","","","1558001528417","23","","","[]","Stuttgart","false","false","2441.7200000006706"
"","html-voicekey-response","88","491600","0.0-4.84-0.84","x6o4fxoxq8j796l","{""user_agent"":""Mozilla/5.0 (Macintosh; Intel Mac OS X 10_14_4) AppleWebKit/537.36 (KHTML, like Gecko) Chrome/74.0.3729.131 Safari/537.36"",""on_chrome"":true,""on_mobile"":false,""language"":""en-US"",""screen_resolution"":[1440,900],""platform"":""MacIntel"",""timezone"":""Europe/Berlin""}","8","2119.0600000007894","","","1558001534864","18","","","[]","Forchheim","false","false","3327.535000000382"
"","html-voicekey-response","89","499324","0.0-4.85-0.85","x6o4fxoxq8j796l","{""user_agent"":""Mozilla/5.0 (Macintosh; Intel Mac OS X 10_14_4) AppleWebKit/537.36 (KHTML, like Gecko) Chrome/74.0.3729.131 Safari/537.36"",""on_chrome"":true,""on_mobile"":false,""language"":""en-US"",""screen_resolution"":[1440,900],""platform"":""MacIntel"",""timezone"":""Europe/Berlin""}","8","2520.4350000002073","","","1558001542195","10","","","[]","Heidelberg","false","false","3720.8200000004726"
"","html-voicekey-response","90","507891","0.0-4.86-0.86","x6o4fxoxq8j796l","{""user_agent"":""Mozilla/5.0 (Macintosh; Intel Mac OS X 10_14_4) AppleWebKit/537.36 (KHTML, like Gecko) Chrome/74.0.3729.131 Safari/537.36"",""on_chrome"":true,""on_mobile"":false,""language"":""en-US"",""screen_resolution"":[1440,900],""platform"":""MacIntel"",""timezone"":""Europe/Berlin""}","8","3453.9450000009733","","","1558001549920","4","","","[]","Würzburg","false","false","4562.069999999949"
"","html-voicekey-response","91","516953","0.0-4.87-0.87","x6o4fxoxq8j796l","{""user_agent"":""Mozilla/5.0 (Macintosh; Intel Mac OS X 10_14_4) AppleWebKit/537.36 (KHTML, like Gecko) Chrome/74.0.3729.131 Safari/537.36"",""on_chrome"":true,""on_mobile"":false,""language"":""en-US"",""screen_resolution"":[1440,900],""platform"":""MacIntel"",""timezone"":""Europe/Berlin""}","8","3014.425000001071","","","1558001558487","21","","","[]","Konstanz","false","false","5057.510000000591"
"","html-voicekey-response","92","527677","0.0-4.88-0.88","x6o4fxoxq8j796l","{""user_agent"":""Mozilla/5.0 (Macintosh; Intel Mac OS X 10_14_4) AppleWebKit/537.36 (KHTML, like Gecko) Chrome/74.0.3729.131 Safari/537.36"",""on_chrome"":true,""on_mobile"":false,""language"":""en-US"",""screen_resolution"":[1440,900],""platform"":""MacIntel"",""timezone"":""Europe/Berlin""}","8","6111.445000000274","","","1558001567548","22","","","[]","Bamberg","false","false","6720.600000000559"
"","html-voicekey-response","93","540286","0.0-4.89-0.89","x6o4fxoxq8j796l","{""user_agent"":""Mozilla/5.0 (Macintosh; Intel Mac OS X 10_14_4) AppleWebKit/537.36 (KHTML, like Gecko) Chrome/74.0.3729.131 Safari/537.36"",""on_chrome"":true,""on_mobile"":false,""language"":""en-US"",""screen_resolution"":[1440,900],""platform"":""MacIntel"",""timezone"":""Europe/Berlin""}","8","7429.799999999674","","","1558001578273","18","","","[]","Forchheim","false","false","8603.945000000647"
"","html-voicekey-response","94","543144","0.0-4.90-0.90","x6o4fxoxq8j796l","{""user_agent"":""Mozilla/5.0 (Macintosh; Intel Mac OS X 10_14_4) AppleWebKit/537.36 (KHTML, like Gecko) Chrome/74.0.3729.131 Safari/537.36"",""on_chrome"":true,""on_mobile"":false,""language"":""en-US"",""screen_resolution"":[1440,900],""platform"":""MacIntel"",""timezone"":""Europe/Berlin""}","8","1577.474999999837","","","1558001590882","23","","Stuttgart","[]","Stuttgart","true","false","2254.544999999809"
"","html-voicekey-response","95","549577","0.0-4.91-0.91","x6o4fxoxq8j796l","{""user_agent"":""Mozilla/5.0 (Macintosh; Intel Mac OS X 10_14_4) AppleWebKit/537.36 (KHTML, like Gecko) Chrome/74.0.3729.131 Safari/537.36"",""on_chrome"":true,""on_mobile"":false,""language"":""en-US"",""screen_resolution"":[1440,900],""platform"":""MacIntel"",""timezone"":""Europe/Berlin""}","8","1718.184999999567","","","1558001593741","21","","","[]","Konstanz","false","false","2428.1399999998976"
"","html-voicekey-response","96","559283","0.0-4.92-0.92","x6o4fxoxq8j796l","{""user_agent"":""Mozilla/5.0 (Macintosh; Intel Mac OS X 10_14_4) AppleWebKit/537.36 (KHTML, like Gecko) Chrome/74.0.3729.131 Safari/537.36"",""on_chrome"":true,""on_mobile"":false,""language"":""en-US"",""screen_resolution"":[1440,900],""platform"":""MacIntel"",""timezone"":""Europe/Berlin""}","8","4926.809999998868","","","1558001600174","18","","","[]","Forchheim","false","false","5702.029999998631"
"","html-voicekey-response","97","564396","0.0-4.93-0.93","x6o4fxoxq8j796l","{""user_agent"":""Mozilla/5.0 (Macintosh; Intel Mac OS X 10_14_4) AppleWebKit/537.36 (KHTML, like Gecko) Chrome/74.0.3729.131 Safari/537.36"",""on_chrome"":true,""on_mobile"":false,""language"":""en-US"",""screen_resolution"":[1440,900],""platform"":""MacIntel"",""timezone"":""Europe/Berlin""}","8","3854.1349999995205","","","1558001609879","22","","Bamberg","[]","Bamberg","true","false","4508.034999998985"
"","html-voicekey-response","98","568129","0.0-4.94-0.94","x6o4fxoxq8j796l","{""user_agent"":""Mozilla/5.0 (Macintosh; Intel Mac OS X 10_14_4) AppleWebKit/537.36 (KHTML, like Gecko) Chrome/74.0.3729.131 Safari/537.36"",""on_chrome"":true,""on_mobile"":false,""language"":""en-US"",""screen_resolution"":[1440,900],""platform"":""MacIntel"",""timezone"":""Europe/Berlin""}","8","2153.2700000005775","","","1558001614992","3","","Ingolstadt","[]","Ingolstadt","true","false","3128.4250000008615"
"","html-voicekey-response","99","574746","0.0-4.95-0.95","x6o4fxoxq8j796l","{""user_agent"":""Mozilla/5.0 (Macintosh; Intel Mac OS X 10_14_4) AppleWebKit/537.36 (KHTML, like Gecko) Chrome/74.0.3729.131 Safari/537.36"",""on_chrome"":true,""on_mobile"":false,""language"":""en-US"",""screen_resolution"":[1440,900],""platform"":""MacIntel"",""timezone"":""Europe/Berlin""}","8","1820.309999998985","","","1558001618725","21","","","[]","Konstanz","false","false","2611.3349999996135"
"","html-voicekey-response","100","577636","0.0-4.96-0.96","x6o4fxoxq8j796l","{""user_agent"":""Mozilla/5.0 (Macintosh; Intel Mac OS X 10_14_4) AppleWebKit/537.36 (KHTML, like Gecko) Chrome/74.0.3729.131 Safari/537.36"",""on_chrome"":true,""on_mobile"":false,""language"":""en-US"",""screen_resolution"":[1440,900],""platform"":""MacIntel"",""timezone"":""Europe/Berlin""}","8","1628.0349999996602","","","1558001625342","7","","Erfurt","[]","Erfurt","true","false","2285.740000001155"
"","html-voicekey-response","101","579887","0.0-4.97-0.97","x6o4fxoxq8j796l","{""user_agent"":""Mozilla/5.0 (Macintosh; Intel Mac OS X 10_14_4) AppleWebKit/537.36 (KHTML, like Gecko) Chrome/74.0.3729.131 Safari/537.36"",""on_chrome"":true,""on_mobile"":false,""language"":""en-US"",""screen_resolution"":[1440,900],""platform"":""MacIntel"",""timezone"":""Europe/Berlin""}","8","1070.650000001397","","","1558001628232","6","","Dresden","[]","Dresden","true","false","1646.4400000004098"
"","html-voicekey-response","102","582569","0.0-4.98-0.98","x6o4fxoxq8j796l","{""user_agent"":""Mozilla/5.0 (Macintosh; Intel Mac OS X 10_14_4) AppleWebKit/537.36 (KHTML, like Gecko) Chrome/74.0.3729.131 Safari/537.36"",""on_chrome"":true,""on_mobile"":false,""language"":""en-US"",""screen_resolution"":[1440,900],""platform"":""MacIntel"",""timezone"":""Europe/Berlin""}","8","1551.815000000503","","","1558001630483","12","","Dessau","[]","Dessau","true","false","2078.0649999997113"
"","html-voicekey-response","103","591359","0.0-4.99-0.99","x6o4fxoxq8j796l","{""user_agent"":""Mozilla/5.0 (Macintosh; Intel Mac OS X 10_14_4) AppleWebKit/537.36 (KHTML, like Gecko) Chrome/74.0.3729.131 Safari/537.36"",""on_chrome"":true,""on_mobile"":false,""language"":""en-US"",""screen_resolution"":[1440,900],""platform"":""MacIntel"",""timezone"":""Europe/Berlin""}","8","3961.629999999632","","","1558001633166","22","","","[]","Bamberg","false","false","4785.434999999707"
"","html-voicekey-response","104","597894","0.0-4.100-0.100","x6o4fxoxq8j796l","{""user_agent"":""Mozilla/5.0 (Macintosh; Intel Mac OS X 10_14_4) AppleWebKit/537.36 (KHTML, like Gecko) Chrome/74.0.3729.131 Safari/537.36"",""on_chrome"":true,""on_mobile"":false,""language"":""en-US"",""screen_resolution"":[1440,900],""platform"":""MacIntel"",""timezone"":""Europe/Berlin""}","8","1771.1550000002376","","","1558001641956","18","","","[]","Forchheim","false","false","2528.6350000005914"
"","html-voicekey-response","105","604622","0.0-4.101-0.101","x6o4fxoxq8j796l","{""user_agent"":""Mozilla/5.0 (Macintosh; Intel Mac OS X 10_14_4) AppleWebKit/537.36 (KHTML, like Gecko) Chrome/74.0.3729.131 Safari/537.36"",""on_chrome"":true,""on_mobile"":false,""language"":""en-US"",""screen_resolution"":[1440,900],""platform"":""MacIntel"",""timezone"":""Europe/Berlin""}","8","2030.6899999994553","","","1558001648491","10","","","[]","Heidelberg","false","false","2722.9549999992596"
"","html-voicekey-response","106","608097","0.0-4.102-0.102","x6o4fxoxq8j796l","{""user_agent"":""Mozilla/5.0 (Macintosh; Intel Mac OS X 10_14_4) AppleWebKit/537.36 (KHTML, like Gecko) Chrome/74.0.3729.131 Safari/537.36"",""on_chrome"":true,""on_mobile"":false,""language"":""en-US"",""screen_resolution"":[1440,900],""platform"":""MacIntel"",""timezone"":""Europe/Berlin""}","8","2052.145000001276","","","1558001655219","11","","Alfeld","[]","Alfeld","true","false","2870.3550000009127"
"","html-voicekey-response","107","619229","0.0-4.103-0.103","x6o4fxoxq8j796l","{""user_agent"":""Mozilla/5.0 (Macintosh; Intel Mac OS X 10_14_4) AppleWebKit/537.36 (KHTML, like Gecko) Chrome/74.0.3729.131 Safari/537.36"",""on_chrome"":true,""on_mobile"":false,""language"":""en-US"",""screen_resolution"":[1440,900],""platform"":""MacIntel"",""timezone"":""Europe/Berlin""}","8","6418.9500000009775","","","1558001658694","15","","","[]","Nürnberg","false","false","7127.220000000321"
"","html-voicekey-response","108","629504","0.0-4.104-0.104","x6o4fxoxq8j796l","{""user_agent"":""Mozilla/5.0 (Macintosh; Intel Mac OS X 10_14_4) AppleWebKit/537.36 (KHTML, like Gecko) Chrome/74.0.3729.131 Safari/537.36"",""on_chrome"":true,""on_mobile"":false,""language"":""en-US"",""screen_resolution"":[1440,900],""platform"":""MacIntel"",""timezone"":""Europe/Berlin""}","8","5461.365000000898","","","1558001669826","22","","","[]","Bamberg","false","false","6269.715000000433"
"","html-voicekey-response","109","637763","0.0-4.105-0.105","x6o4fxoxq8j796l","{""user_agent"":""Mozilla/5.0 (Macintosh; Intel Mac OS X 10_14_4) AppleWebKit/537.36 (KHTML, like Gecko) Chrome/74.0.3729.131 Safari/537.36"",""on_chrome"":true,""on_mobile"":false,""language"":""en-US"",""screen_resolution"":[1440,900],""platform"":""MacIntel"",""timezone"":""Europe/Berlin""}","8","7011.029999999422","","","1558001680101","21","","Konstanz","[]","Konstanz","true","false","7652.190000000643"
"","html-voicekey-response","110","644121","0.0-4.106-0.106","x6o4fxoxq8j796l","{""user_agent"":""Mozilla/5.0 (Macintosh; Intel Mac OS X 10_14_4) AppleWebKit/537.36 (KHTML, like Gecko) Chrome/74.0.3729.131 Safari/537.36"",""on_chrome"":true,""on_mobile"":false,""language"":""en-US"",""screen_resolution"":[1440,900],""platform"":""MacIntel"",""timezone"":""Europe/Berlin""}","8","5110.5800000004","","","1558001688359","18","","Forchheim","[]","Forchheim","true","false","5753.725000000559"
"","html-voicekey-response","111","649688","0.0-4.107-0.107","x6o4fxoxq8j796l","{""user_agent"":""Mozilla/5.0 (Macintosh; Intel Mac OS X 10_14_4) AppleWebKit/537.36 (KHTML, like Gecko) Chrome/74.0.3729.131 Safari/537.36"",""on_chrome"":true,""on_mobile"":false,""language"":""en-US"",""screen_resolution"":[1440,900],""platform"":""MacIntel"",""timezone"":""Europe/Berlin""}","8","4418.105000000423","","","1558001694719","9","","München","[]","München","true","false","4960.160000000498"
"","html-voicekey-response","112","657965","0.0-4.108-0.108","x6o4fxoxq8j796l","{""user_agent"":""Mozilla/5.0 (Macintosh; Intel Mac OS X 10_14_4) AppleWebKit/537.36 (KHTML, like Gecko) Chrome/74.0.3729.131 Safari/537.36"",""on_chrome"":true,""on_mobile"":false,""language"":""en-US"",""screen_resolution"":[1440,900],""platform"":""MacIntel"",""timezone"":""Europe/Berlin""}","8","3563.834999998892","","","1558001700285","21","","","[]","Konstanz","false","false","4272.189999999711"
"","html-voicekey-response","113","661618","0.0-4.109-0.109","x6o4fxoxq8j796l","{""user_agent"":""Mozilla/5.0 (Macintosh; Intel Mac OS X 10_14_4) AppleWebKit/537.36 (KHTML, like Gecko) Chrome/74.0.3729.131 Safari/537.36"",""on_chrome"":true,""on_mobile"":false,""language"":""en-US"",""screen_resolution"":[1440,900],""platform"":""MacIntel"",""timezone"":""Europe/Berlin""}","8","2468.090000000177","","","1558001708564","18","","Forchheim","[]","Forchheim","true","false","3044.3150000011083"
"","html-voicekey-response","114","665390","0.0-4.110-0.110","x6o4fxoxq8j796l","{""user_agent"":""Mozilla/5.0 (Macintosh; Intel Mac OS X 10_14_4) AppleWebKit/537.36 (KHTML, like Gecko) Chrome/74.0.3729.131 Safari/537.36"",""on_chrome"":true,""on_mobile"":false,""language"":""en-US"",""screen_resolution"":[1440,900],""platform"":""MacIntel"",""timezone"":""Europe/Berlin""}","8","2590.55500000061","","","1558001712216","4","","Würzburg","[]","Würzburg","true","false","3165.5799999990268"
"","html-voicekey-response","115","672557","0.0-4.111-0.111","x6o4fxoxq8j796l","{""user_agent"":""Mozilla/5.0 (Macintosh; Intel Mac OS X 10_14_4) AppleWebKit/537.36 (KHTML, like Gecko) Chrome/74.0.3729.131 Safari/537.36"",""on_chrome"":true,""on_mobile"":false,""language"":""en-US"",""screen_resolution"":[1440,900],""platform"":""MacIntel"",""timezone"":""Europe/Berlin""}","8","2119.7399999999675","","","1558001715987","22","","","[]","Bamberg","false","false","3162.5000000003492"
"","html-voicekey-response","116","683218","0.0-4.112-0.112","x6o4fxoxq8j796l","{""user_agent"":""Mozilla/5.0 (Macintosh; Intel Mac OS X 10_14_4) AppleWebKit/537.36 (KHTML, like Gecko) Chrome/74.0.3729.131 Safari/537.36"",""on_chrome"":true,""on_mobile"":false,""language"":""en-US"",""screen_resolution"":[1440,900],""platform"":""MacIntel"",""timezone"":""Europe/Berlin""}","8","5434.869999998924","","","1558001723154","21","","","[]","Konstanz","false","false","6655.12999999919"
"","html-voicekey-response","117","691693","0.0-4.113-0.113","x6o4fxoxq8j796l","{""user_agent"":""Mozilla/5.0 (Macintosh; Intel Mac OS X 10_14_4) AppleWebKit/537.36 (KHTML, like Gecko) Chrome/74.0.3729.131 Safari/537.36"",""on_chrome"":true,""on_mobile"":false,""language"":""en-US"",""screen_resolution"":[1440,900],""platform"":""MacIntel"",""timezone"":""Europe/Berlin""}","8","3301.835000000056","","","1558001733815","22","","","[]","Bamberg","false","false","4469.345000001369"
"","html-voicekey-response","118","698344","0.0-4.114-0.114","x6o4fxoxq8j796l","{""user_agent"":""Mozilla/5.0 (Macintosh; Intel Mac OS X 10_14_4) AppleWebKit/537.36 (KHTML, like Gecko) Chrome/74.0.3729.131 Safari/537.36"",""on_chrome"":true,""on_mobile"":false,""language"":""en-US"",""screen_resolution"":[1440,900],""platform"":""MacIntel"",""timezone"":""Europe/Berlin""}","8","1884.920000000368","","","1558001742291","18","","","[]","Forchheim","false","false","2644.0500000008615"
"","html-voicekey-response","119","701683","0.0-4.115-0.115","x6o4fxoxq8j796l","{""user_agent"":""Mozilla/5.0 (Macintosh; Intel Mac OS X 10_14_4) AppleWebKit/537.36 (KHTML, like Gecko) Chrome/74.0.3729.131 Safari/537.36"",""on_chrome"":true,""on_mobile"":false,""language"":""en-US"",""screen_resolution"":[1440,900],""platform"":""MacIntel"",""timezone"":""Europe/Berlin""}","8","2023.699999999581","","","1558001748941","22","","Bamberg","[]","Bamberg","true","false","2733.860000000219"
"","html-voicekey-response","120","707218","0.0-4.116-0.116","x6o4fxoxq8j796l","{""user_agent"":""Mozilla/5.0 (Macintosh; Intel Mac OS X 10_14_4) AppleWebKit/537.36 (KHTML, like Gecko) Chrome/74.0.3729.131 Safari/537.36"",""on_chrome"":true,""on_mobile"":false,""language"":""en-US"",""screen_resolution"":[1440,900],""platform"":""MacIntel"",""timezone"":""Europe/Berlin""}","8","4233.985000000661","","","1558001752281","21","","Konstanz","[]","Konstanz","true","false","4927.5150000012945"
"","html-voicekey-response","121","715473","0.0-4.117-0.117","x6o4fxoxq8j796l","{""user_agent"":""Mozilla/5.0 (Macintosh; Intel Mac OS X 10_14_4) AppleWebKit/537.36 (KHTML, like Gecko) Chrome/74.0.3729.131 Safari/537.36"",""on_chrome"":true,""on_mobile"":false,""language"":""en-US"",""screen_resolution"":[1440,900],""platform"":""MacIntel"",""timezone"":""Europe/Berlin""}","8","2340.5299999994227","","","1558001757817","10","","","[]","Heidelberg","false","false","4248.854999999865"
"","html-voicekey-response","122","719642","0.0-4.118-0.118","x6o4fxoxq8j796l","{""user_agent"":""Mozilla/5.0 (Macintosh; Intel Mac OS X 10_14_4) AppleWebKit/537.36 (KHTML, like Gecko) Chrome/74.0.3729.131 Safari/537.36"",""on_chrome"":true,""on_mobile"":false,""language"":""en-US"",""screen_resolution"":[1440,900],""platform"":""MacIntel"",""timezone"":""Europe/Berlin""}","8","3001.1699999994366","","","1558001766072","18","","Forchheim","[]","Forchheim","true","false","3560.7600000003586"
"","html-voicekey-response","123","723151","0.0-4.119-0.119","x6o4fxoxq8j796l","{""user_agent"":""Mozilla/5.0 (Macintosh; Intel Mac OS X 10_14_4) AppleWebKit/537.36 (KHTML, like Gecko) Chrome/74.0.3729.131 Safari/537.36"",""on_chrome"":true,""on_mobile"":false,""language"":""en-US"",""screen_resolution"":[1440,900],""platform"":""MacIntel"",""timezone"":""Europe/Berlin""}","8","2244.399999999418","","","1558001770240","21","","Konstanz","[]","Konstanz","true","false","2902.7499999993015"
"","html-voicekey-response","124","726534","0.0-4.120-0.120","x6o4fxoxq8j796l","{""user_agent"":""Mozilla/5.0 (Macintosh; Intel Mac OS X 10_14_4) AppleWebKit/537.36 (KHTML, like Gecko) Chrome/74.0.3729.131 Safari/537.36"",""on_chrome"":true,""on_mobile"":false,""language"":""en-US"",""screen_resolution"":[1440,900],""platform"":""MacIntel"",""timezone"":""Europe/Berlin""}","8","1784.1749999986264","","","1558001773750","22","","Bamberg","[]","Bamberg","true","false","2776.399999998859"
"","html-voicekey-response","125","729534","0.0-4.121-0.121","x6o4fxoxq8j796l","{""user_agent"":""Mozilla/5.0 (Macintosh; Intel Mac OS X 10_14_4) AppleWebKit/537.36 (KHTML, like Gecko) Chrome/74.0.3729.131 Safari/537.36"",""on_chrome"":true,""on_mobile"":false,""language"":""en-US"",""screen_resolution"":[1440,900],""platform"":""MacIntel"",""timezone"":""Europe/Berlin""}","8","1869.075000000396","","","1558001777132","3","","Ingolstadt","[]","Ingolstadt","true","false","2394.4900000005728"
"","html-voicekey-response","126","735875","0.0-4.122-0.122","x6o4fxoxq8j796l","{""user_agent"":""Mozilla/5.0 (Macintosh; Intel Mac OS X 10_14_4) AppleWebKit/537.36 (KHTML, like Gecko) Chrome/74.0.3729.131 Safari/537.36"",""on_chrome"":true,""on_mobile"":false,""language"":""en-US"",""screen_resolution"":[1440,900],""platform"":""MacIntel"",""timezone"":""Europe/Berlin""}","8","4858.710000000172","","","1558001780133","15","","Nürnberg","[]","Nürnberg","true","false","5734.075000000303"
"","html-voicekey-response","127","747924","0.0-4.123-0.123","x6o4fxoxq8j796l","{""user_agent"":""Mozilla/5.0 (Macintosh; Intel Mac OS X 10_14_4) AppleWebKit/537.36 (KHTML, like Gecko) Chrome/74.0.3729.131 Safari/537.36"",""on_chrome"":true,""on_mobile"":false,""language"":""en-US"",""screen_resolution"":[1440,900],""platform"":""MacIntel"",""timezone"":""Europe/Berlin""}","8","7250.795000001532","","","1558001786473","5","","","[]","Aachen","false","false","8041.990000001504"
"","html-voicekey-response","128","759285","0.0-4.124-0.124","x6o4fxoxq8j796l","{""user_agent"":""Mozilla/5.0 (Macintosh; Intel Mac OS X 10_14_4) AppleWebKit/537.36 (KHTML, like Gecko) Chrome/74.0.3729.131 Safari/537.36"",""on_chrome"":true,""on_mobile"":false,""language"":""en-US"",""screen_resolution"":[1440,900],""platform"":""MacIntel"",""timezone"":""Europe/Berlin""}","8","6612.549999999674","","","1558001798523","21","","","[]","Konstanz","false","false","7353.440000000759"
"","html-voicekey-response","129","761977","0.0-4.125-0.125","x6o4fxoxq8j796l","{""user_agent"":""Mozilla/5.0 (Macintosh; Intel Mac OS X 10_14_4) AppleWebKit/537.36 (KHTML, like Gecko) Chrome/74.0.3729.131 Safari/537.36"",""on_chrome"":true,""on_mobile"":false,""language"":""en-US"",""screen_resolution"":[1440,900],""platform"":""MacIntel"",""timezone"":""Europe/Berlin""}","8","1625.4450000013226","","","1558001809884","18","","Forchheim","[]","Forchheim","true","false","2085.125000001397"
"","html-voicekey-response","130","764709","0.0-4.126-0.126","x6o4fxoxq8j796l","{""user_agent"":""Mozilla/5.0 (Macintosh; Intel Mac OS X 10_14_4) AppleWebKit/537.36 (KHTML, like Gecko) Chrome/74.0.3729.131 Safari/537.36"",""on_chrome"":true,""on_mobile"":false,""language"":""en-US"",""screen_resolution"":[1440,900],""platform"":""MacIntel"",""timezone"":""Europe/Berlin""}","8","1284.335000000056","","","1558001812575","21","","Konstanz","[]","Konstanz","true","false","2126.830000001006"
"","html-voicekey-response","131","768001","0.0-4.127-0.127","x6o4fxoxq8j796l","{""user_agent"":""Mozilla/5.0 (Macintosh; Intel Mac OS X 10_14_4) AppleWebKit/537.36 (KHTML, like Gecko) Chrome/74.0.3729.131 Safari/537.36"",""on_chrome"":true,""on_mobile"":false,""language"":""en-US"",""screen_resolution"":[1440,900],""platform"":""MacIntel"",""timezone"":""Europe/Berlin""}","8","1867.7650000008057","","","1558001815309","22","","Bamberg","[]","Bamberg","true","false","2684.85000000149"
"","html-voicekey-response","132","771201","0.0-4.128-0.128","x6o4fxoxq8j796l","{""user_agent"":""Mozilla/5.0 (Macintosh; Intel Mac OS X 10_14_4) AppleWebKit/537.36 (KHTML, like Gecko) Chrome/74.0.3729.131 Safari/537.36"",""on_chrome"":true,""on_mobile"":false,""language"":""en-US"",""screen_resolution"":[1440,900],""platform"":""MacIntel"",""timezone"":""Europe/Berlin""}","8","1934.1750000001398","","","1558001818600","8","","Gotha","[]","Gotha","true","false","2593.300000000396"
"","html-voicekey-response","133","774136","0.0-4.129-0.129","x6o4fxoxq8j796l","{""user_agent"":""Mozilla/5.0 (Macintosh; Intel Mac OS X 10_14_4) AppleWebKit/537.36 (KHTML, like Gecko) Chrome/74.0.3729.131 Safari/537.36"",""on_chrome"":true,""on_mobile"":false,""language"":""en-US"",""screen_resolution"":[1440,900],""platform"":""MacIntel"",""timezone"":""Europe/Berlin""}","8","1534.4700000004145","","","1558001821800","1","","Magdeburg","[]","Magdeburg","true","false","2327.409999999916"
"","html-voicekey-response","134","779586","0.0-4.130-0.130","x6o4fxoxq8j796l","{""user_agent"":""Mozilla/5.0 (Macintosh; Intel Mac OS X 10_14_4) AppleWebKit/537.36 (KHTML, like Gecko) Chrome/74.0.3729.131 Safari/537.36"",""on_chrome"":true,""on_mobile"":false,""language"":""en-US"",""screen_resolution"":[1440,900],""platform"":""MacIntel"",""timezone"":""Europe/Berlin""}","8","4282.820000000274","","","1558001824735","21","","Konstanz","[]","Konstanz","true","false","4841.435000000289"
"","html-voicekey-response","135","782113","0.0-4.131-0.131","x6o4fxoxq8j796l","{""user_agent"":""Mozilla/5.0 (Macintosh; Intel Mac OS X 10_14_4) AppleWebKit/537.36 (KHTML, like Gecko) Chrome/74.0.3729.131 Safari/537.36"",""on_chrome"":true,""on_mobile"":false,""language"":""en-US"",""screen_resolution"":[1440,900],""platform"":""MacIntel"",""timezone"":""Europe/Berlin""}","8","1409.489999999851","","","1558001830186","9","","München","[]","München","true","false","1918.270000000135"
"","html-voicekey-response","136","786346","0.0-4.132-0.132","x6o4fxoxq8j796l","{""user_agent"":""Mozilla/5.0 (Macintosh; Intel Mac OS X 10_14_4) AppleWebKit/537.36 (KHTML, like Gecko) Chrome/74.0.3729.131 Safari/537.36"",""on_chrome"":true,""on_mobile"":false,""language"":""en-US"",""screen_resolution"":[1440,900],""platform"":""MacIntel"",""timezone"":""Europe/Berlin""}","8","3134.1549999996555","","","1558001832712","13","","Chemnitz","[]","Chemnitz","true","false","3626.8799999998882"
"","html-voicekey-response","137","795029","0.0-4.133-0.133","x6o4fxoxq8j796l","{""user_agent"":""Mozilla/5.0 (Macintosh; Intel Mac OS X 10_14_4) AppleWebKit/537.36 (KHTML, like Gecko) Chrome/74.0.3729.131 Safari/537.36"",""on_chrome"":true,""on_mobile"":false,""language"":""en-US"",""screen_resolution"":[1440,900],""platform"":""MacIntel"",""timezone"":""Europe/Berlin""}","8","7515.605000000307","","","1558001836946","18","","Forchheim","[]","Forchheim","true","false","8074.27000000095"
"","html-voicekey-response","138","802107","0.0-4.134-0.134","x6o4fxoxq8j796l","{""user_agent"":""Mozilla/5.0 (Macintosh; Intel Mac OS X 10_14_4) AppleWebKit/537.36 (KHTML, like Gecko) Chrome/74.0.3729.131 Safari/537.36"",""on_chrome"":true,""on_mobile"":false,""language"":""en-US"",""screen_resolution"":[1440,900],""platform"":""MacIntel"",""timezone"":""Europe/Berlin""}","8","5496.275000001164","","","1558001845628","21","","Konstanz","[]","Konstanz","true","false","6471.220000001253"
"","html-voicekey-response","139","804407","0.0-4.135-0.135","x6o4fxoxq8j796l","{""user_agent"":""Mozilla/5.0 (Macintosh; Intel Mac OS X 10_14_4) AppleWebKit/537.36 (KHTML, like Gecko) Chrome/74.0.3729.131 Safari/537.36"",""on_chrome"":true,""on_mobile"":false,""language"":""en-US"",""screen_resolution"":[1440,900],""platform"":""MacIntel"",""timezone"":""Europe/Berlin""}","8","1117.4650000011084","","","1558001852707","18","","Forchheim","[]","Forchheim","true","false","1691.7350000003353"
"","html-voicekey-response","140","806764","0.0-4.136-0.136","x6o4fxoxq8j796l","{""user_agent"":""Mozilla/5.0 (Macintosh; Intel Mac OS X 10_14_4) AppleWebKit/537.36 (KHTML, like Gecko) Chrome/74.0.3729.131 Safari/537.36"",""on_chrome"":true,""on_mobile"":false,""language"":""en-US"",""screen_resolution"":[1440,900],""platform"":""MacIntel"",""timezone"":""Europe/Berlin""}","8","1066.6650000001305","","","1558001855007","21","","Konstanz","[]","Konstanz","true","false","1749.6700000010896"
"","html-voicekey-response","141","814548","0.0-4.137-0.137","x6o4fxoxq8j796l","{""user_agent"":""Mozilla/5.0 (Macintosh; Intel Mac OS X 10_14_4) AppleWebKit/537.36 (KHTML, like Gecko) Chrome/74.0.3729.131 Safari/537.36"",""on_chrome"":true,""on_mobile"":false,""language"":""en-US"",""screen_resolution"":[1440,900],""platform"":""MacIntel"",""timezone"":""Europe/Berlin""}","8","650.5550000000279","","","1558001857365","10","","","[]","Heidelberg","false","false","3775.4199999999255"
"","html-voicekey-response","142","817923","0.0-4.138-0.138","x6o4fxoxq8j796l","{""user_agent"":""Mozilla/5.0 (Macintosh; Intel Mac OS X 10_14_4) AppleWebKit/537.36 (KHTML, like Gecko) Chrome/74.0.3729.131 Safari/537.36"",""on_chrome"":true,""on_mobile"":false,""language"":""en-US"",""screen_resolution"":[1440,900],""platform"":""MacIntel"",""timezone"":""Europe/Berlin""}","8","2249.5799999994692","","","1558001865148","21","","Konstanz","[]","Konstanz","true","false","2766.3499999998603"
