"value","trial_type","trial_index","time_elapsed","internal_node_id","subject","browser_info","participant_number","rt","responses","view_history","presentation_start_time","id","text","response","keypresses","answer","correct","study","experimenter_rt"
"","call-function","0","4","0.0-0.0","kacx16hx830etob","{""user_agent"":""Mozilla/5.0 (Macintosh; Intel Mac OS X 10_14_4) AppleWebKit/537.36 (KHTML, like Gecko) Chrome/74.0.3729.131 Safari/537.36"",""on_chrome"":true,""on_mobile"":false,""language"":""en-US"",""screen_resolution"":[1440,900],""platform"":""MacIntel"",""timezone"":""Europe/Berlin""}","9","","","","","","","","","","","",""
"","survey-text","1","8818","0.0-1.0","kacx16hx830etob","{""user_agent"":""Mozilla/5.0 (Macintosh; Intel Mac OS X 10_14_4) AppleWebKit/537.36 (KHTML, like Gecko) Chrome/74.0.3729.131 Safari/537.36"",""on_chrome"":true,""on_mobile"":false,""language"":""en-US"",""screen_resolution"":[1440,900],""platform"":""MacIntel"",""timezone"":""Europe/Berlin""}","9","8812","{""Q0"":""9""}","","","","","","","","","",""
"","instructions","2","142945","0.0-2.0","kacx16hx830etob","{""user_agent"":""Mozilla/5.0 (Macintosh; Intel Mac OS X 10_14_4) AppleWebKit/537.36 (KHTML, like Gecko) Chrome/74.0.3729.131 Safari/537.36"",""on_chrome"":true,""on_mobile"":false,""language"":""en-US"",""screen_resolution"":[1440,900],""platform"":""MacIntel"",""timezone"":""Europe/Berlin""}","9","134126","","[{""page_index"":0,""viewing_time"":134126}]","","","","","","","","",""
"","call-function","3","142946","0.0-3.0","kacx16hx830etob","{""user_agent"":""Mozilla/5.0 (Macintosh; Intel Mac OS X 10_14_4) AppleWebKit/537.36 (KHTML, like Gecko) Chrome/74.0.3729.131 Safari/537.36"",""on_chrome"":true,""on_mobile"":false,""language"":""en-US"",""screen_resolution"":[1440,900],""platform"":""MacIntel"",""timezone"":""Europe/Berlin""}","9","","","","","","","","","","","",""
"","html-voicekey-response","4","147415","0.0-4.0-0.0","kacx16hx830etob","{""user_agent"":""Mozilla/5.0 (Macintosh; Intel Mac OS X 10_14_4) AppleWebKit/537.36 (KHTML, like Gecko) Chrome/74.0.3729.131 Safari/537.36"",""on_chrome"":true,""on_mobile"":false,""language"":""en-US"",""screen_resolution"":[1440,900],""platform"":""MacIntel"",""timezone"":""Europe/Berlin""}","9","3005.7099999992993","","","1558006671681","1","","Magdeburg","[]","Magdeburg","true","true","3864.6150000004272"
"","html-voicekey-response","5","152216","0.0-4.1-0.1","kacx16hx830etob","{""user_agent"":""Mozilla/5.0 (Macintosh; Intel Mac OS X 10_14_4) AppleWebKit/537.36 (KHTML, like Gecko) Chrome/74.0.3729.131 Safari/537.36"",""on_chrome"":true,""on_mobile"":false,""language"":""en-US"",""screen_resolution"":[1440,900],""platform"":""MacIntel"",""timezone"":""Europe/Berlin""}","9","3436.145000001334","","","1558006676151","1","","Magdeburg","[]","Magdeburg","true","false","4196.025000001129"
"","html-voicekey-response","6","155738","0.0-4.2-0.2","kacx16hx830etob","{""user_agent"":""Mozilla/5.0 (Macintosh; Intel Mac OS X 10_14_4) AppleWebKit/537.36 (KHTML, like Gecko) Chrome/74.0.3729.131 Safari/537.36"",""on_chrome"":true,""on_mobile"":false,""language"":""en-US"",""screen_resolution"":[1440,900],""platform"":""MacIntel"",""timezone"":""Europe/Berlin""}","9","2003.91499999917","","","1558006680950","2","","Berlin","[]","Berlin","true","true","2919.7399999993504"
"","html-voicekey-response","7","160222","0.0-4.3-0.3","kacx16hx830etob","{""user_agent"":""Mozilla/5.0 (Macintosh; Intel Mac OS X 10_14_4) AppleWebKit/537.36 (KHTML, like Gecko) Chrome/74.0.3729.131 Safari/537.36"",""on_chrome"":true,""on_mobile"":false,""language"":""en-US"",""screen_resolution"":[1440,900],""platform"":""MacIntel"",""timezone"":""Europe/Berlin""}","9","3272.7699999994134","","","1558006684472","2","","Berlin","[]","Berlin","true","false","3882.2000000000116"
"","html-voicekey-response","8","172838","0.0-4.4-0.4","kacx16hx830etob","{""user_agent"":""Mozilla/5.0 (Macintosh; Intel Mac OS X 10_14_4) AppleWebKit/537.36 (KHTML, like Gecko) Chrome/74.0.3729.131 Safari/537.36"",""on_chrome"":true,""on_mobile"":false,""language"":""en-US"",""screen_resolution"":[1440,900],""platform"":""MacIntel"",""timezone"":""Europe/Berlin""}","9","4020.184999999276","","","1558006688956","3","","Ingolstadt","[]","Ingolstadt","true","true","12012.139999998908"
"","html-voicekey-response","9","176697","0.0-4.5-0.5","kacx16hx830etob","{""user_agent"":""Mozilla/5.0 (Macintosh; Intel Mac OS X 10_14_4) AppleWebKit/537.36 (KHTML, like Gecko) Chrome/74.0.3729.131 Safari/537.36"",""on_chrome"":true,""on_mobile"":false,""language"":""en-US"",""screen_resolution"":[1440,900],""platform"":""MacIntel"",""timezone"":""Europe/Berlin""}","9","314.66999999961115","","","1558006701572","4","","Würzburg","[]","Würzburg","true","true","3256.890000000567"
"","html-voicekey-response","10","180158","0.0-4.6-0.6","kacx16hx830etob","{""user_agent"":""Mozilla/5.0 (Macintosh; Intel Mac OS X 10_14_4) AppleWebKit/537.36 (KHTML, like Gecko) Chrome/74.0.3729.131 Safari/537.36"",""on_chrome"":true,""on_mobile"":false,""language"":""en-US"",""screen_resolution"":[1440,900],""platform"":""MacIntel"",""timezone"":""Europe/Berlin""}","9","1884.5300000010234","","","1558006705431","3","","Ingolstadt","[]","Ingolstadt","true","false","2859.570000000531"
"","html-voicekey-response","11","183708","0.0-4.7-0.7","kacx16hx830etob","{""user_agent"":""Mozilla/5.0 (Macintosh; Intel Mac OS X 10_14_4) AppleWebKit/537.36 (KHTML, like Gecko) Chrome/74.0.3729.131 Safari/537.36"",""on_chrome"":true,""on_mobile"":false,""language"":""en-US"",""screen_resolution"":[1440,900],""platform"":""MacIntel"",""timezone"":""Europe/Berlin""}","9","2088.734999999206","","","1558006708893","4","","Würzburg","[]","Würzburg","true","false","2947.4000000009546"
"","html-voicekey-response","12","189808","0.0-4.8-0.8","kacx16hx830etob","{""user_agent"":""Mozilla/5.0 (Macintosh; Intel Mac OS X 10_14_4) AppleWebKit/537.36 (KHTML, like Gecko) Chrome/74.0.3729.131 Safari/537.36"",""on_chrome"":true,""on_mobile"":false,""language"":""en-US"",""screen_resolution"":[1440,900],""platform"":""MacIntel"",""timezone"":""Europe/Berlin""}","9","2788.8800000017277","","","1558006712442","5","","Aachen","[]","Aachen","true","true","5497.6800000004005"
"","html-voicekey-response","13","192532","0.0-4.9-0.9","kacx16hx830etob","{""user_agent"":""Mozilla/5.0 (Macintosh; Intel Mac OS X 10_14_4) AppleWebKit/537.36 (KHTML, like Gecko) Chrome/74.0.3729.131 Safari/537.36"",""on_chrome"":true,""on_mobile"":false,""language"":""en-US"",""screen_resolution"":[1440,900],""platform"":""MacIntel"",""timezone"":""Europe/Berlin""}","9","1446.3500000000117","","","1558006718542","1","","Magdeburg","[]","Magdeburg","true","false","2122.0899999989488"
"","html-voicekey-response","14","195699","0.0-4.10-0.10","kacx16hx830etob","{""user_agent"":""Mozilla/5.0 (Macintosh; Intel Mac OS X 10_14_4) AppleWebKit/537.36 (KHTML, like Gecko) Chrome/74.0.3729.131 Safari/537.36"",""on_chrome"":true,""on_mobile"":false,""language"":""en-US"",""screen_resolution"":[1440,900],""platform"":""MacIntel"",""timezone"":""Europe/Berlin""}","9","1871.9049999998301","","","1558006721267","5","","Aachen","[]","Aachen","true","false","2563.6700000013807"
"","html-voicekey-response","15","198482","0.0-4.11-0.11","kacx16hx830etob","{""user_agent"":""Mozilla/5.0 (Macintosh; Intel Mac OS X 10_14_4) AppleWebKit/537.36 (KHTML, like Gecko) Chrome/74.0.3729.131 Safari/537.36"",""on_chrome"":true,""on_mobile"":false,""language"":""en-US"",""screen_resolution"":[1440,900],""platform"":""MacIntel"",""timezone"":""Europe/Berlin""}","9","1472.3800000009128","","","1558006724433","2","","Berlin","[]","Berlin","true","false","2179.7249999999476"
"","html-voicekey-response","16","201439","0.0-4.12-0.12","kacx16hx830etob","{""user_agent"":""Mozilla/5.0 (Macintosh; Intel Mac OS X 10_14_4) AppleWebKit/537.36 (KHTML, like Gecko) Chrome/74.0.3729.131 Safari/537.36"",""on_chrome"":true,""on_mobile"":false,""language"":""en-US"",""screen_resolution"":[1440,900],""platform"":""MacIntel"",""timezone"":""Europe/Berlin""}","9","1479.3499999994879","","","1558006727217","6","","Dresden","[]","Dresden","true","true","2354.6200000000827"
"","html-voicekey-response","17","205489","0.0-4.13-0.13","kacx16hx830etob","{""user_agent"":""Mozilla/5.0 (Macintosh; Intel Mac OS X 10_14_4) AppleWebKit/537.36 (KHTML, like Gecko) Chrome/74.0.3729.131 Safari/537.36"",""on_chrome"":true,""on_mobile"":false,""language"":""en-US"",""screen_resolution"":[1440,900],""platform"":""MacIntel"",""timezone"":""Europe/Berlin""}","9","2406.1249999993656","","","1558006730174","7","","Erfurt","[]","Erfurt","true","true","3447.659999999829"
"","html-voicekey-response","18","208322","0.0-4.14-0.14","kacx16hx830etob","{""user_agent"":""Mozilla/5.0 (Macintosh; Intel Mac OS X 10_14_4) AppleWebKit/537.36 (KHTML, like Gecko) Chrome/74.0.3729.131 Safari/537.36"",""on_chrome"":true,""on_mobile"":false,""language"":""en-US"",""screen_resolution"":[1440,900],""platform"":""MacIntel"",""timezone"":""Europe/Berlin""}","9","1455.7400000010734","","","1558006734224","6","","Dresden","[]","Dresden","true","false","2230.840000000171"
"","html-voicekey-response","19","211447","0.0-4.15-0.15","kacx16hx830etob","{""user_agent"":""Mozilla/5.0 (Macintosh; Intel Mac OS X 10_14_4) AppleWebKit/537.36 (KHTML, like Gecko) Chrome/74.0.3729.131 Safari/537.36"",""on_chrome"":true,""on_mobile"":false,""language"":""en-US"",""screen_resolution"":[1440,900],""platform"":""MacIntel"",""timezone"":""Europe/Berlin""}","9","1579.3350000002306","","","1558006737057","7","","Erfurt","[]","Erfurt","true","false","2522.4949999992677"
"","html-voicekey-response","20","215498","0.0-4.16-0.16","kacx16hx830etob","{""user_agent"":""Mozilla/5.0 (Macintosh; Intel Mac OS X 10_14_4) AppleWebKit/537.36 (KHTML, like Gecko) Chrome/74.0.3729.131 Safari/537.36"",""on_chrome"":true,""on_mobile"":false,""language"":""en-US"",""screen_resolution"":[1440,900],""platform"":""MacIntel"",""timezone"":""Europe/Berlin""}","9","2272.5000000007917","","","1558006740181","8","","Gotha","[]","Gotha","true","true","3448.220000000234"
"","html-voicekey-response","21","219064","0.0-4.17-0.17","kacx16hx830etob","{""user_agent"":""Mozilla/5.0 (Macintosh; Intel Mac OS X 10_14_4) AppleWebKit/537.36 (KHTML, like Gecko) Chrome/74.0.3729.131 Safari/537.36"",""on_chrome"":true,""on_mobile"":false,""language"":""en-US"",""screen_resolution"":[1440,900],""platform"":""MacIntel"",""timezone"":""Europe/Berlin""}","9","2038.2299999999582","","","1558006744232","9","","München","[]","München","true","true","2962.054999999964"
"","html-voicekey-response","22","223489","0.0-4.18-0.18","kacx16hx830etob","{""user_agent"":""Mozilla/5.0 (Macintosh; Intel Mac OS X 10_14_4) AppleWebKit/537.36 (KHTML, like Gecko) Chrome/74.0.3729.131 Safari/537.36"",""on_chrome"":true,""on_mobile"":false,""language"":""en-US"",""screen_resolution"":[1440,900],""platform"":""MacIntel"",""timezone"":""Europe/Berlin""}","9","2663.7000000008034","","","1558006747798","8","","Gotha","[]","Gotha","true","false","3821.835000000632"
"","html-voicekey-response","23","226155","0.0-4.19-0.19","kacx16hx830etob","{""user_agent"":""Mozilla/5.0 (Macintosh; Intel Mac OS X 10_14_4) AppleWebKit/537.36 (KHTML, like Gecko) Chrome/74.0.3729.131 Safari/537.36"",""on_chrome"":true,""on_mobile"":false,""language"":""en-US"",""screen_resolution"":[1440,900],""platform"":""MacIntel"",""timezone"":""Europe/Berlin""}","9","1322.2349999994972","","","1558006752223","9","","München","[]","München","true","false","2064.1049999994866"
"","html-voicekey-response","24","230956","0.0-4.20-0.20","kacx16hx830etob","{""user_agent"":""Mozilla/5.0 (Macintosh; Intel Mac OS X 10_14_4) AppleWebKit/537.36 (KHTML, like Gecko) Chrome/74.0.3729.131 Safari/537.36"",""on_chrome"":true,""on_mobile"":false,""language"":""en-US"",""screen_resolution"":[1440,900],""platform"":""MacIntel"",""timezone"":""Europe/Berlin""}","9","1654.9200000007172","","","1558006754889","4","","Würzburg","[]","Würzburg","true","false","4198.480000000942"
"","html-voicekey-response","25","235246","0.0-4.21-0.21","kacx16hx830etob","{""user_agent"":""Mozilla/5.0 (Macintosh; Intel Mac OS X 10_14_4) AppleWebKit/537.36 (KHTML, like Gecko) Chrome/74.0.3729.131 Safari/537.36"",""on_chrome"":true,""on_mobile"":false,""language"":""en-US"",""screen_resolution"":[1440,900],""platform"":""MacIntel"",""timezone"":""Europe/Berlin""}","9","2862.5050000008255","","","1558006759690","3","","Ingolstadt","[]","Ingolstadt","true","false","3687.860000000015"
"","html-voicekey-response","26","238979","0.0-4.22-0.22","kacx16hx830etob","{""user_agent"":""Mozilla/5.0 (Macintosh; Intel Mac OS X 10_14_4) AppleWebKit/537.36 (KHTML, like Gecko) Chrome/74.0.3729.131 Safari/537.36"",""on_chrome"":true,""on_mobile"":false,""language"":""en-US"",""screen_resolution"":[1440,900],""platform"":""MacIntel"",""timezone"":""Europe/Berlin""}","9","1788.7199999984937","","","1558006763981","10","","Heidelberg","[]","Heidelberg","true","true","3130.514999998908"
"","html-voicekey-response","27","242448","0.0-4.23-0.23","kacx16hx830etob","{""user_agent"":""Mozilla/5.0 (Macintosh; Intel Mac OS X 10_14_4) AppleWebKit/537.36 (KHTML, like Gecko) Chrome/74.0.3729.131 Safari/537.36"",""on_chrome"":true,""on_mobile"":false,""language"":""en-US"",""screen_resolution"":[1440,900],""platform"":""MacIntel"",""timezone"":""Europe/Berlin""}","9","1720.984999999759","","","1558006767714","11","","Alfeld","[]","Alfeld","true","true","2863.8099999988917"
"","html-voicekey-response","28","253820","0.0-4.24-0.24","kacx16hx830etob","{""user_agent"":""Mozilla/5.0 (Macintosh; Intel Mac OS X 10_14_4) AppleWebKit/537.36 (KHTML, like Gecko) Chrome/74.0.3729.131 Safari/537.36"",""on_chrome"":true,""on_mobile"":false,""language"":""en-US"",""screen_resolution"":[1440,900],""platform"":""MacIntel"",""timezone"":""Europe/Berlin""}","9","Infinity","","","1558006771183","10","","Heidelberg","[]","Heidelberg","true","false","10769.35500000036"
"","html-voicekey-response","29","257200","0.0-4.25-0.25","kacx16hx830etob","{""user_agent"":""Mozilla/5.0 (Macintosh; Intel Mac OS X 10_14_4) AppleWebKit/537.36 (KHTML, like Gecko) Chrome/74.0.3729.131 Safari/537.36"",""on_chrome"":true,""on_mobile"":false,""language"":""en-US"",""screen_resolution"":[1440,900],""platform"":""MacIntel"",""timezone"":""Europe/Berlin""}","9","2000.0299999991025","","","1558006782556","11","","Alfeld","[]","Alfeld","true","false","2776.869999999675"
"","html-voicekey-response","30","262517","0.0-4.26-0.26","kacx16hx830etob","{""user_agent"":""Mozilla/5.0 (Macintosh; Intel Mac OS X 10_14_4) AppleWebKit/537.36 (KHTML, like Gecko) Chrome/74.0.3729.131 Safari/537.36"",""on_chrome"":true,""on_mobile"":false,""language"":""en-US"",""screen_resolution"":[1440,900],""platform"":""MacIntel"",""timezone"":""Europe/Berlin""}","9","2870.240000000055","","","1558006785936","5","","Aachen","[]","Aachen","true","false","4713.0500000003085"
"","html-voicekey-response","31","265236","0.0-4.27-0.27","kacx16hx830etob","{""user_agent"":""Mozilla/5.0 (Macintosh; Intel Mac OS X 10_14_4) AppleWebKit/537.36 (KHTML, like Gecko) Chrome/74.0.3729.131 Safari/537.36"",""on_chrome"":true,""on_mobile"":false,""language"":""en-US"",""screen_resolution"":[1440,900],""platform"":""MacIntel"",""timezone"":""Europe/Berlin""}","9","1304.9550000012737","","","1558006791252","6","","Dresden","[]","Dresden","true","false","2113.7900000012596"
"","html-voicekey-response","32","267674","0.0-4.28-0.28","kacx16hx830etob","{""user_agent"":""Mozilla/5.0 (Macintosh; Intel Mac OS X 10_14_4) AppleWebKit/537.36 (KHTML, like Gecko) Chrome/74.0.3729.131 Safari/537.36"",""on_chrome"":true,""on_mobile"":false,""language"":""en-US"",""screen_resolution"":[1440,900],""platform"":""MacIntel"",""timezone"":""Europe/Berlin""}","9","1126.2500000010245","","","1558006793971","7","","Erfurt","[]","Erfurt","true","false","1834.9799999996321"
"","html-voicekey-response","33","270857","0.0-4.29-0.29","kacx16hx830etob","{""user_agent"":""Mozilla/5.0 (Macintosh; Intel Mac OS X 10_14_4) AppleWebKit/537.36 (KHTML, like Gecko) Chrome/74.0.3729.131 Safari/537.36"",""on_chrome"":true,""on_mobile"":false,""language"":""en-US"",""screen_resolution"":[1440,900],""platform"":""MacIntel"",""timezone"":""Europe/Berlin""}","9","1855.1999999998138","","","1558006796408","8","","Gotha","[]","Gotha","true","false","2580.6249999987194"
"","html-voicekey-response","34","274090","0.0-4.30-0.30","kacx16hx830etob","{""user_agent"":""Mozilla/5.0 (Macintosh; Intel Mac OS X 10_14_4) AppleWebKit/537.36 (KHTML, like Gecko) Chrome/74.0.3729.131 Safari/537.36"",""on_chrome"":true,""on_mobile"":false,""language"":""en-US"",""screen_resolution"":[1440,900],""platform"":""MacIntel"",""timezone"":""Europe/Berlin""}","9","1655.034999999602","","","1558006799592","9","","München","[]","München","true","false","2630.0850000006612"
"","html-voicekey-response","35","277029","0.0-4.31-0.31","kacx16hx830etob","{""user_agent"":""Mozilla/5.0 (Macintosh; Intel Mac OS X 10_14_4) AppleWebKit/537.36 (KHTML, like Gecko) Chrome/74.0.3729.131 Safari/537.36"",""on_chrome"":true,""on_mobile"":false,""language"":""en-US"",""screen_resolution"":[1440,900],""platform"":""MacIntel"",""timezone"":""Europe/Berlin""}","9","1670.884999999404","","","1558006802826","12","","Dessau","[]","Dessau","true","true","2335.089999998687"
"","html-voicekey-response","36","279796","0.0-4.32-0.32","kacx16hx830etob","{""user_agent"":""Mozilla/5.0 (Macintosh; Intel Mac OS X 10_14_4) AppleWebKit/537.36 (KHTML, like Gecko) Chrome/74.0.3729.131 Safari/537.36"",""on_chrome"":true,""on_mobile"":false,""language"":""en-US"",""screen_resolution"":[1440,900],""platform"":""MacIntel"",""timezone"":""Europe/Berlin""}","9","1320.0750000013272","","","1558006805765","13","","Chemnitz","[]","Chemnitz","true","true","2162.355000000389"
"","html-voicekey-response","37","285229","0.0-4.33-0.33","kacx16hx830etob","{""user_agent"":""Mozilla/5.0 (Macintosh; Intel Mac OS X 10_14_4) AppleWebKit/537.36 (KHTML, like Gecko) Chrome/74.0.3729.131 Safari/537.36"",""on_chrome"":true,""on_mobile"":false,""language"":""en-US"",""screen_resolution"":[1440,900],""platform"":""MacIntel"",""timezone"":""Europe/Berlin""}","9","3888.4550000001095","","","1558006808531","12","","Dessau","[]","Dessau","true","false","4830.314999999246"
"","html-voicekey-response","38","313387","0.0-4.34-0.34","kacx16hx830etob","{""user_agent"":""Mozilla/5.0 (Macintosh; Intel Mac OS X 10_14_4) AppleWebKit/537.36 (KHTML, like Gecko) Chrome/74.0.3729.131 Safari/537.36"",""on_chrome"":true,""on_mobile"":false,""language"":""en-US"",""screen_resolution"":[1440,900],""platform"":""MacIntel"",""timezone"":""Europe/Berlin""}","9","Infinity","","","1558006813963","13","","Chemnitz","[]","Chemnitz","true","false","27555.604999999516"
"","html-voicekey-response","39","316912","0.0-4.35-0.35","kacx16hx830etob","{""user_agent"":""Mozilla/5.0 (Macintosh; Intel Mac OS X 10_14_4) AppleWebKit/537.36 (KHTML, like Gecko) Chrome/74.0.3729.131 Safari/537.36"",""on_chrome"":true,""on_mobile"":false,""language"":""en-US"",""screen_resolution"":[1440,900],""platform"":""MacIntel"",""timezone"":""Europe/Berlin""}","9","396.57000000062396","","","1558006842122","3","","Ingolstadt","[]","Ingolstadt","true","false","2922.140000000596"
"","html-voicekey-response","40","321145","0.0-4.36-0.36","kacx16hx830etob","{""user_agent"":""Mozilla/5.0 (Macintosh; Intel Mac OS X 10_14_4) AppleWebKit/537.36 (KHTML, like Gecko) Chrome/74.0.3729.131 Safari/537.36"",""on_chrome"":true,""on_mobile"":false,""language"":""en-US"",""screen_resolution"":[1440,900],""platform"":""MacIntel"",""timezone"":""Europe/Berlin""}","9","2303.3499999999535","","","1558006845648","10","","Heidelberg","[]","Heidelberg","true","false","3629.6650000003865"
"","html-voicekey-response","41","325246","0.0-4.37-0.37","kacx16hx830etob","{""user_agent"":""Mozilla/5.0 (Macintosh; Intel Mac OS X 10_14_4) AppleWebKit/537.36 (KHTML, like Gecko) Chrome/74.0.3729.131 Safari/537.36"",""on_chrome"":true,""on_mobile"":false,""language"":""en-US"",""screen_resolution"":[1440,900],""platform"":""MacIntel"",""timezone"":""Europe/Berlin""}","9","2803.3850000009174","","","1558006849881","11","","Alfeld","[]","Alfeld","true","false","3496.0300000002026"
"","html-voicekey-response","42","329087","0.0-4.38-0.38","kacx16hx830etob","{""user_agent"":""Mozilla/5.0 (Macintosh; Intel Mac OS X 10_14_4) AppleWebKit/537.36 (KHTML, like Gecko) Chrome/74.0.3729.131 Safari/537.36"",""on_chrome"":true,""on_mobile"":false,""language"":""en-US"",""screen_resolution"":[1440,900],""platform"":""MacIntel"",""timezone"":""Europe/Berlin""}","9","2511.9599999997067","","","1558006853981","5","","Aachen","[]","Aachen","true","false","3238.1449999993783"
"","html-voicekey-response","43","334686","0.0-4.39-0.39","kacx16hx830etob","{""user_agent"":""Mozilla/5.0 (Macintosh; Intel Mac OS X 10_14_4) AppleWebKit/537.36 (KHTML, like Gecko) Chrome/74.0.3729.131 Safari/537.36"",""on_chrome"":true,""on_mobile"":false,""language"":""en-US"",""screen_resolution"":[1440,900],""platform"":""MacIntel"",""timezone"":""Europe/Berlin""}","9","3903.449999999639","","","1558006857823","12","","Dessau","[]","Dessau","true","false","4995.750000000058"
"","html-voicekey-response","44","338894","0.0-4.40-0.40","kacx16hx830etob","{""user_agent"":""Mozilla/5.0 (Macintosh; Intel Mac OS X 10_14_4) AppleWebKit/537.36 (KHTML, like Gecko) Chrome/74.0.3729.131 Safari/537.36"",""on_chrome"":true,""on_mobile"":false,""language"":""en-US"",""screen_resolution"":[1440,900],""platform"":""MacIntel"",""timezone"":""Europe/Berlin""}","9","2946.289999999723","","","1558006863421","13","","Chemnitz","[]","Chemnitz","true","false","3605.3499999998603"
"","html-voicekey-response","45","342594","0.0-4.41-0.41","kacx16hx830etob","{""user_agent"":""Mozilla/5.0 (Macintosh; Intel Mac OS X 10_14_4) AppleWebKit/537.36 (KHTML, like Gecko) Chrome/74.0.3729.131 Safari/537.36"",""on_chrome"":true,""on_mobile"":false,""language"":""en-US"",""screen_resolution"":[1440,900],""platform"":""MacIntel"",""timezone"":""Europe/Berlin""}","9","1905.2849999987288","","","1558006867629","14","","Potsdam","[]","Potsdam","true","true","3096.8149999989546"
"","html-voicekey-response","46","346179","0.0-4.42-0.42","kacx16hx830etob","{""user_agent"":""Mozilla/5.0 (Macintosh; Intel Mac OS X 10_14_4) AppleWebKit/537.36 (KHTML, like Gecko) Chrome/74.0.3729.131 Safari/537.36"",""on_chrome"":true,""on_mobile"":false,""language"":""en-US"",""screen_resolution"":[1440,900],""platform"":""MacIntel"",""timezone"":""Europe/Berlin""}","9","1852.2400000000257","","","1558006871332","15","","Nürnberg","[]","Nürnberg","true","true","2977.815000000177"
"","html-voicekey-response","47","349787","0.0-4.43-0.43","kacx16hx830etob","{""user_agent"":""Mozilla/5.0 (Macintosh; Intel Mac OS X 10_14_4) AppleWebKit/537.36 (KHTML, like Gecko) Chrome/74.0.3729.131 Safari/537.36"",""on_chrome"":true,""on_mobile"":false,""language"":""en-US"",""screen_resolution"":[1440,900],""platform"":""MacIntel"",""timezone"":""Europe/Berlin""}","9","2094.549999999616","","","1558006874915","14","","Potsdam","[]","Potsdam","true","false","3004.0850000004866"
"","html-voicekey-response","48","352570","0.0-4.44-0.44","kacx16hx830etob","{""user_agent"":""Mozilla/5.0 (Macintosh; Intel Mac OS X 10_14_4) AppleWebKit/537.36 (KHTML, like Gecko) Chrome/74.0.3729.131 Safari/537.36"",""on_chrome"":true,""on_mobile"":false,""language"":""en-US"",""screen_resolution"":[1440,900],""platform"":""MacIntel"",""timezone"":""Europe/Berlin""}","9","1320.2650000001072","","","1558006878522","15","","Nürnberg","[]","Nürnberg","true","false","2179.4300000001094"
"","html-voicekey-response","49","355870","0.0-4.45-0.45","kacx16hx830etob","{""user_agent"":""Mozilla/5.0 (Macintosh; Intel Mac OS X 10_14_4) AppleWebKit/537.36 (KHTML, like Gecko) Chrome/74.0.3729.131 Safari/537.36"",""on_chrome"":true,""on_mobile"":false,""language"":""en-US"",""screen_resolution"":[1440,900],""platform"":""MacIntel"",""timezone"":""Europe/Berlin""}","9","1455.0500000003144","","","1558006881305","16","","Schwangau","[]","Schwangau","true","true","2697.1300000004703"
"","html-voicekey-response","50","358527","0.0-4.46-0.46","kacx16hx830etob","{""user_agent"":""Mozilla/5.0 (Macintosh; Intel Mac OS X 10_14_4) AppleWebKit/537.36 (KHTML, like Gecko) Chrome/74.0.3729.131 Safari/537.36"",""on_chrome"":true,""on_mobile"":false,""language"":""en-US"",""screen_resolution"":[1440,900],""platform"":""MacIntel"",""timezone"":""Europe/Berlin""}","9","1195.0699999996345","","","1558006884605","17","","Leipzig","[]","Leipzig","true","true","2054.0000000001164"
"","html-voicekey-response","51","362994","0.0-4.47-0.47","kacx16hx830etob","{""user_agent"":""Mozilla/5.0 (Macintosh; Intel Mac OS X 10_14_4) AppleWebKit/537.36 (KHTML, like Gecko) Chrome/74.0.3729.131 Safari/537.36"",""on_chrome"":true,""on_mobile"":false,""language"":""en-US"",""screen_resolution"":[1440,900],""platform"":""MacIntel"",""timezone"":""Europe/Berlin""}","9","2638.735000000254","","","1558006887262","16","","Schwangau","[]","Schwangau","true","false","3863.6150000001653"
"","html-voicekey-response","52","365860","0.0-4.48-0.48","kacx16hx830etob","{""user_agent"":""Mozilla/5.0 (Macintosh; Intel Mac OS X 10_14_4) AppleWebKit/537.36 (KHTML, like Gecko) Chrome/74.0.3729.131 Safari/537.36"",""on_chrome"":true,""on_mobile"":false,""language"":""en-US"",""screen_resolution"":[1440,900],""platform"":""MacIntel"",""timezone"":""Europe/Berlin""}","9","1370.4950000009035","","","1558006891730","17","","Leipzig","[]","Leipzig","true","false","2262.5600000010454"
"","html-voicekey-response","53","369253","0.0-4.49-0.49","kacx16hx830etob","{""user_agent"":""Mozilla/5.0 (Macintosh; Intel Mac OS X 10_14_4) AppleWebKit/537.36 (KHTML, like Gecko) Chrome/74.0.3729.131 Safari/537.36"",""on_chrome"":true,""on_mobile"":false,""language"":""en-US"",""screen_resolution"":[1440,900],""platform"":""MacIntel"",""timezone"":""Europe/Berlin""}","9","1572.074999999872","","","1558006894595","18","","Forchheim","[]","Forchheim","true","true","2790.0449999996927"
"","html-voicekey-response","54","372536","0.0-4.50-0.50","kacx16hx830etob","{""user_agent"":""Mozilla/5.0 (Macintosh; Intel Mac OS X 10_14_4) AppleWebKit/537.36 (KHTML, like Gecko) Chrome/74.0.3729.131 Safari/537.36"",""on_chrome"":true,""on_mobile"":false,""language"":""en-US"",""screen_resolution"":[1440,900],""platform"":""MacIntel"",""timezone"":""Europe/Berlin""}","9","2071.519999999355","","","1558006897988","12","","Dessau","[]","Dessau","true","false","2680.2399999996996"
"","html-voicekey-response","55","383204","0.0-4.51-0.51","kacx16hx830etob","{""user_agent"":""Mozilla/5.0 (Macintosh; Intel Mac OS X 10_14_4) AppleWebKit/537.36 (KHTML, like Gecko) Chrome/74.0.3729.131 Safari/537.36"",""on_chrome"":true,""on_mobile"":false,""language"":""en-US"",""screen_resolution"":[1440,900],""platform"":""MacIntel"",""timezone"":""Europe/Berlin""}","9","5771.950000000104","","","1558006901271","18","","","[]","Forchheim","false","false","6664.840000001248"
"","html-voicekey-response","56","386265","0.0-4.52-0.52","kacx16hx830etob","{""user_agent"":""Mozilla/5.0 (Macintosh; Intel Mac OS X 10_14_4) AppleWebKit/537.36 (KHTML, like Gecko) Chrome/74.0.3729.131 Safari/537.36"",""on_chrome"":true,""on_mobile"":false,""language"":""en-US"",""screen_resolution"":[1440,900],""platform"":""MacIntel"",""timezone"":""Europe/Berlin""}","9","Infinity","","","1558006911938","13","","Chemnitz","[]","Chemnitz","true","false","2458.2850000006147"
"","html-voicekey-response","57","389347","0.0-4.53-0.53","kacx16hx830etob","{""user_agent"":""Mozilla/5.0 (Macintosh; Intel Mac OS X 10_14_4) AppleWebKit/537.36 (KHTML, like Gecko) Chrome/74.0.3729.131 Safari/537.36"",""on_chrome"":true,""on_mobile"":false,""language"":""en-US"",""screen_resolution"":[1440,900],""platform"":""MacIntel"",""timezone"":""Europe/Berlin""}","9","1522.0600000010222","","","1558006914999","19","","Frankfurt","[]","Frankfurt","true","true","2480.6200000002864"
"","html-voicekey-response","58","391888","0.0-4.54-0.54","kacx16hx830etob","{""user_agent"":""Mozilla/5.0 (Macintosh; Intel Mac OS X 10_14_4) AppleWebKit/537.36 (KHTML, like Gecko) Chrome/74.0.3729.131 Safari/537.36"",""on_chrome"":true,""on_mobile"":false,""language"":""en-US"",""screen_resolution"":[1440,900],""platform"":""MacIntel"",""timezone"":""Europe/Berlin""}","9","1112.1949999995763","","","1558006918083","20","","Hamburg ","[]","Hamburg ","true","true","1937.1250000004075"
"","html-voicekey-response","59","395754","0.0-4.55-0.55","kacx16hx830etob","{""user_agent"":""Mozilla/5.0 (Macintosh; Intel Mac OS X 10_14_4) AppleWebKit/537.36 (KHTML, like Gecko) Chrome/74.0.3729.131 Safari/537.36"",""on_chrome"":true,""on_mobile"":false,""language"":""en-US"",""screen_resolution"":[1440,900],""platform"":""MacIntel"",""timezone"":""Europe/Berlin""}","9","2288.8350000010455","","","1558006920622","19","","Frankfurt","[]","Frankfurt","true","false","3263.935000000871"
"","html-voicekey-response","60","398337","0.0-4.56-0.56","kacx16hx830etob","{""user_agent"":""Mozilla/5.0 (Macintosh; Intel Mac OS X 10_14_4) AppleWebKit/537.36 (KHTML, like Gecko) Chrome/74.0.3729.131 Safari/537.36"",""on_chrome"":true,""on_mobile"":false,""language"":""en-US"",""screen_resolution"":[1440,900],""platform"":""MacIntel"",""timezone"":""Europe/Berlin""}","9","1271.0199999999954","","","1558006924489","20","","Hamburg ","[]","Hamburg ","true","false","1980.8150000008172"
"","html-voicekey-response","61","401373","0.0-4.57-0.57","kacx16hx830etob","{""user_agent"":""Mozilla/5.0 (Macintosh; Intel Mac OS X 10_14_4) AppleWebKit/537.36 (KHTML, like Gecko) Chrome/74.0.3729.131 Safari/537.36"",""on_chrome"":true,""on_mobile"":false,""language"":""en-US"",""screen_resolution"":[1440,900],""platform"":""MacIntel"",""timezone"":""Europe/Berlin""}","9","1738.7850000012318","","","1558006927072","14","","Potsdam","[]","Potsdam","true","false","2431.3200000015204"
"","html-voicekey-response","62","404696","0.0-4.58-0.58","kacx16hx830etob","{""user_agent"":""Mozilla/5.0 (Macintosh; Intel Mac OS X 10_14_4) AppleWebKit/537.36 (KHTML, like Gecko) Chrome/74.0.3729.131 Safari/537.36"",""on_chrome"":true,""on_mobile"":false,""language"":""en-US"",""screen_resolution"":[1440,900],""platform"":""MacIntel"",""timezone"":""Europe/Berlin""}","9","1694.4950000013691","","","1558006930108","15","","Nürnberg","[]","Nürnberg","true","false","2720.1450000011246"
"","html-voicekey-response","63","411613","0.0-4.59-0.59","kacx16hx830etob","{""user_agent"":""Mozilla/5.0 (Macintosh; Intel Mac OS X 10_14_4) AppleWebKit/537.36 (KHTML, like Gecko) Chrome/74.0.3729.131 Safari/537.36"",""on_chrome"":true,""on_mobile"":false,""language"":""en-US"",""screen_resolution"":[1440,900],""platform"":""MacIntel"",""timezone"":""Europe/Berlin""}","9","1922.5650000006194","","","1558006933430","11","","","[]","Alfeld","false","false","2914.4950000009267"
"","html-voicekey-response","64","414625","0.0-4.60-0.60","kacx16hx830etob","{""user_agent"":""Mozilla/5.0 (Macintosh; Intel Mac OS X 10_14_4) AppleWebKit/537.36 (KHTML, like Gecko) Chrome/74.0.3729.131 Safari/537.36"",""on_chrome"":true,""on_mobile"":false,""language"":""en-US"",""screen_resolution"":[1440,900],""platform"":""MacIntel"",""timezone"":""Europe/Berlin""}","9","1437.679999998922","","","1558006940348","16","","Schwangau","[]","Schwangau","true","false","2408.460000000545"
"","html-voicekey-response","65","417658","0.0-4.61-0.61","kacx16hx830etob","{""user_agent"":""Mozilla/5.0 (Macintosh; Intel Mac OS X 10_14_4) AppleWebKit/537.36 (KHTML, like Gecko) Chrome/74.0.3729.131 Safari/537.36"",""on_chrome"":true,""on_mobile"":false,""language"":""en-US"",""screen_resolution"":[1440,900],""platform"":""MacIntel"",""timezone"":""Europe/Berlin""}","9","1405.2650000010967","","","1558006943360","17","","Leipzig","[]","Leipzig","true","false","2430.620000000985"
"","html-voicekey-response","66","420358","0.0-4.62-0.62","kacx16hx830etob","{""user_agent"":""Mozilla/5.0 (Macintosh; Intel Mac OS X 10_14_4) AppleWebKit/537.36 (KHTML, like Gecko) Chrome/74.0.3729.131 Safari/537.36"",""on_chrome"":true,""on_mobile"":false,""language"":""en-US"",""screen_resolution"":[1440,900],""platform"":""MacIntel"",""timezone"":""Europe/Berlin""}","9","1470.9650000002935","","","1558006946393","13","","Chemnitz","[]","Chemnitz","true","false","2097.00500000146"
"","html-voicekey-response","67","425808","0.0-4.63-0.63","kacx16hx830etob","{""user_agent"":""Mozilla/5.0 (Macintosh; Intel Mac OS X 10_14_4) AppleWebKit/537.36 (KHTML, like Gecko) Chrome/74.0.3729.131 Safari/537.36"",""on_chrome"":true,""on_mobile"":false,""language"":""en-US"",""screen_resolution"":[1440,900],""platform"":""MacIntel"",""timezone"":""Europe/Berlin""}","9","4087.994999999681","","","1558006949093","18","","Forchheim","[]","Forchheim","true","false","4845.784999999509"
"","html-voicekey-response","68","429165","0.0-4.64-0.64","kacx16hx830etob","{""user_agent"":""Mozilla/5.0 (Macintosh; Intel Mac OS X 10_14_4) AppleWebKit/537.36 (KHTML, like Gecko) Chrome/74.0.3729.131 Safari/537.36"",""on_chrome"":true,""on_mobile"":false,""language"":""en-US"",""screen_resolution"":[1440,900],""platform"":""MacIntel"",""timezone"":""Europe/Berlin""}","9","1762.9300000006683","","","1558006954542","21","","Konstanz","[]","Konstanz","true","true","2754.8250000000116"
"","html-voicekey-response","69","431965","0.0-4.65-0.65","kacx16hx830etob","{""user_agent"":""Mozilla/5.0 (Macintosh; Intel Mac OS X 10_14_4) AppleWebKit/537.36 (KHTML, like Gecko) Chrome/74.0.3729.131 Safari/537.36"",""on_chrome"":true,""on_mobile"":false,""language"":""en-US"",""screen_resolution"":[1440,900],""platform"":""MacIntel"",""timezone"":""Europe/Berlin""}","9","1235.5100000002772","","","1558006957902","22","","Bamberg","[]","Bamberg","true","true","2193.470000000205"
"","html-voicekey-response","70","435265","0.0-4.66-0.66","kacx16hx830etob","{""user_agent"":""Mozilla/5.0 (Macintosh; Intel Mac OS X 10_14_4) AppleWebKit/537.36 (KHTML, like Gecko) Chrome/74.0.3729.131 Safari/537.36"",""on_chrome"":true,""on_mobile"":false,""language"":""en-US"",""screen_resolution"":[1440,900],""platform"":""MacIntel"",""timezone"":""Europe/Berlin""}","9","2021.6450000005775","","","1558006960700","21","","Konstanz","[]","Konstanz","true","false","2696.715000000084"
"","html-voicekey-response","71","438439","0.0-4.67-0.67","kacx16hx830etob","{""user_agent"":""Mozilla/5.0 (Macintosh; Intel Mac OS X 10_14_4) AppleWebKit/537.36 (KHTML, like Gecko) Chrome/74.0.3729.131 Safari/537.36"",""on_chrome"":true,""on_mobile"":false,""language"":""en-US"",""screen_resolution"":[1440,900],""platform"":""MacIntel"",""timezone"":""Europe/Berlin""}","9","1546.4649999992457","","","1558006963999","22","","Bamberg","[]","Bamberg","true","false","2571.99000000034"
"","html-voicekey-response","72","441622","0.0-4.68-0.68","kacx16hx830etob","{""user_agent"":""Mozilla/5.0 (Macintosh; Intel Mac OS X 10_14_4) AppleWebKit/537.36 (KHTML, like Gecko) Chrome/74.0.3729.131 Safari/537.36"",""on_chrome"":true,""on_mobile"":false,""language"":""en-US"",""screen_resolution"":[1440,900],""platform"":""MacIntel"",""timezone"":""Europe/Berlin""}","9","1338.349999999837","","","1558006967174","19","","Frankfurt","[]","Frankfurt","true","false","2579.4049999985727"
"","html-voicekey-response","73","460623","0.0-4.69-0.69","kacx16hx830etob","{""user_agent"":""Mozilla/5.0 (Macintosh; Intel Mac OS X 10_14_4) AppleWebKit/537.36 (KHTML, like Gecko) Chrome/74.0.3729.131 Safari/537.36"",""on_chrome"":true,""on_mobile"":false,""language"":""en-US"",""screen_resolution"":[1440,900],""platform"":""MacIntel"",""timezone"":""Europe/Berlin""}","9","10071.780000000004","","","1558006970357","5","","","[]","Aachen","false","false","14997.409999999916"
"","html-voicekey-response","74","462635","0.0-4.70-0.70","kacx16hx830etob","{""user_agent"":""Mozilla/5.0 (Macintosh; Intel Mac OS X 10_14_4) AppleWebKit/537.36 (KHTML, like Gecko) Chrome/74.0.3729.131 Safari/537.36"",""on_chrome"":true,""on_mobile"":false,""language"":""en-US"",""screen_resolution"":[1440,900],""platform"":""MacIntel"",""timezone"":""Europe/Berlin""}","9","100","","","1558006989358","20","","Hamburg ","[]","Hamburg ","true","false","1409.7149999997928"
"","html-voicekey-response","75","466045","0.0-4.71-0.71","kacx16hx830etob","{""user_agent"":""Mozilla/5.0 (Macintosh; Intel Mac OS X 10_14_4) AppleWebKit/537.36 (KHTML, like Gecko) Chrome/74.0.3729.131 Safari/537.36"",""on_chrome"":true,""on_mobile"":false,""language"":""en-US"",""screen_resolution"":[1440,900],""platform"":""MacIntel"",""timezone"":""Europe/Berlin""}","9","1896.0749999985915","","","1558006991371","12","","Dessau","[]","Dessau","true","false","2805.6299999988987"
"","html-voicekey-response","76","470660","0.0-4.72-0.72","kacx16hx830etob","{""user_agent"":""Mozilla/5.0 (Macintosh; Intel Mac OS X 10_14_4) AppleWebKit/537.36 (KHTML, like Gecko) Chrome/74.0.3729.131 Safari/537.36"",""on_chrome"":true,""on_mobile"":false,""language"":""en-US"",""screen_resolution"":[1440,900],""platform"":""MacIntel"",""timezone"":""Europe/Berlin""}","9","3104.9599999985426","","","1558006994779","18","","Forchheim","[]","Forchheim","true","false","4013.34499999939"
"","html-voicekey-response","77","473093","0.0-4.73-0.73","kacx16hx830etob","{""user_agent"":""Mozilla/5.0 (Macintosh; Intel Mac OS X 10_14_4) AppleWebKit/537.36 (KHTML, like Gecko) Chrome/74.0.3729.131 Safari/537.36"",""on_chrome"":true,""on_mobile"":false,""language"":""en-US"",""screen_resolution"":[1440,900],""platform"":""MacIntel"",""timezone"":""Europe/Berlin""}","9","1138.1400000007475","","","1558006999396","2","","Berlin","[]","Berlin","true","false","1828.9650000006077"
"","html-voicekey-response","78","476318","0.0-4.74-0.74","kacx16hx830etob","{""user_agent"":""Mozilla/5.0 (Macintosh; Intel Mac OS X 10_14_4) AppleWebKit/537.36 (KHTML, like Gecko) Chrome/74.0.3729.131 Safari/537.36"",""on_chrome"":true,""on_mobile"":false,""language"":""en-US"",""screen_resolution"":[1440,900],""platform"":""MacIntel"",""timezone"":""Europe/Berlin""}","9","1428.8300000005752","","","1558007001828","1","","Magdeburg","[]","Magdeburg","true","false","2621.7400000005146"
"","html-voicekey-response","79","491612","0.0-4.75-0.75","kacx16hx830etob","{""user_agent"":""Mozilla/5.0 (Macintosh; Intel Mac OS X 10_14_4) AppleWebKit/537.36 (KHTML, like Gecko) Chrome/74.0.3729.131 Safari/537.36"",""on_chrome"":true,""on_mobile"":false,""language"":""en-US"",""screen_resolution"":[1440,900],""platform"":""MacIntel"",""timezone"":""Europe/Berlin""}","9","10503.065000000619","","","1558007005053","21","","","[]","Konstanz","false","false","11291.06499999942"
"","html-voicekey-response","80","503645","0.0-4.76-0.76","kacx16hx830etob","{""user_agent"":""Mozilla/5.0 (Macintosh; Intel Mac OS X 10_14_4) AppleWebKit/537.36 (KHTML, like Gecko) Chrome/74.0.3729.131 Safari/537.36"",""on_chrome"":true,""on_mobile"":false,""language"":""en-US"",""screen_resolution"":[1440,900],""platform"":""MacIntel"",""timezone"":""Europe/Berlin""}","9","2454.8699999994483","","","1558007020348","22","","","[]","Bamberg","false","false","8029.730000000214"
"","html-voicekey-response","81","510569","0.0-4.77-0.77","kacx16hx830etob","{""user_agent"":""Mozilla/5.0 (Macintosh; Intel Mac OS X 10_14_4) AppleWebKit/537.36 (KHTML, like Gecko) Chrome/74.0.3729.131 Safari/537.36"",""on_chrome"":true,""on_mobile"":false,""language"":""en-US"",""screen_resolution"":[1440,900],""platform"":""MacIntel"",""timezone"":""Europe/Berlin""}","9","5661.834999998833","","","1558007032381","18","","Forchheim","[]","Forchheim","true","false","6319.954999999027"
"","html-voicekey-response","82","513476","0.0-4.78-0.78","kacx16hx830etob","{""user_agent"":""Mozilla/5.0 (Macintosh; Intel Mac OS X 10_14_4) AppleWebKit/537.36 (KHTML, like Gecko) Chrome/74.0.3729.131 Safari/537.36"",""on_chrome"":true,""on_mobile"":false,""language"":""en-US"",""screen_resolution"":[1440,900],""platform"":""MacIntel"",""timezone"":""Europe/Berlin""}","9","1529.04000000112","","","1558007039304","23","","Stuttgart","[]","Stuttgart","true","true","2304.244999999355"
"","html-voicekey-response","83","516376","0.0-4.79-0.79","kacx16hx830etob","{""user_agent"":""Mozilla/5.0 (Macintosh; Intel Mac OS X 10_14_4) AppleWebKit/537.36 (KHTML, like Gecko) Chrome/74.0.3729.131 Safari/537.36"",""on_chrome"":true,""on_mobile"":false,""language"":""en-US"",""screen_resolution"":[1440,900],""platform"":""MacIntel"",""timezone"":""Europe/Berlin""}","9","1671.4250000002562","","","1558007042211","13","","Chemnitz","[]","Chemnitz","true","false","2296.834999999148"
"","html-voicekey-response","84","519342","0.0-4.80-0.80","kacx16hx830etob","{""user_agent"":""Mozilla/5.0 (Macintosh; Intel Mac OS X 10_14_4) AppleWebKit/537.36 (KHTML, like Gecko) Chrome/74.0.3729.131 Safari/537.36"",""on_chrome"":true,""on_mobile"":false,""language"":""en-US"",""screen_resolution"":[1440,900],""platform"":""MacIntel"",""timezone"":""Europe/Berlin""}","9","1637.8700000003214","","","1558007045111","23","","Stuttgart","[]","Stuttgart","true","false","2363.5200000007753"
"","html-voicekey-response","85","527977","0.0-4.81-0.81","kacx16hx830etob","{""user_agent"":""Mozilla/5.0 (Macintosh; Intel Mac OS X 10_14_4) AppleWebKit/537.36 (KHTML, like Gecko) Chrome/74.0.3729.131 Safari/537.36"",""on_chrome"":true,""on_mobile"":false,""language"":""en-US"",""screen_resolution"":[1440,900],""platform"":""MacIntel"",""timezone"":""Europe/Berlin""}","9","3938.6450000000536","","","1558007048077","21","","","[]","Konstanz","false","false","4630.345000001427"
"","html-voicekey-response","86","531221","0.0-4.82-0.82","kacx16hx830etob","{""user_agent"":""Mozilla/5.0 (Macintosh; Intel Mac OS X 10_14_4) AppleWebKit/537.36 (KHTML, like Gecko) Chrome/74.0.3729.131 Safari/537.36"",""on_chrome"":true,""on_mobile"":false,""language"":""en-US"",""screen_resolution"":[1440,900],""platform"":""MacIntel"",""timezone"":""Europe/Berlin""}","9","Infinity","","","1558007056714","4","","Würzburg","[]","Würzburg","true","false","2638.580000000773"
"","html-voicekey-response","87","541972","0.0-4.83-0.83","kacx16hx830etob","{""user_agent"":""Mozilla/5.0 (Macintosh; Intel Mac OS X 10_14_4) AppleWebKit/537.36 (KHTML, like Gecko) Chrome/74.0.3729.131 Safari/537.36"",""on_chrome"":true,""on_mobile"":false,""language"":""en-US"",""screen_resolution"":[1440,900],""platform"":""MacIntel"",""timezone"":""Europe/Berlin""}","9","5537.324999999231","","","1558007059957","22","","","[]","Bamberg","false","false","6746.224999999045"
"","html-voicekey-response","88","545150","0.0-4.84-0.84","kacx16hx830etob","{""user_agent"":""Mozilla/5.0 (Macintosh; Intel Mac OS X 10_14_4) AppleWebKit/537.36 (KHTML, like Gecko) Chrome/74.0.3729.131 Safari/537.36"",""on_chrome"":true,""on_mobile"":false,""language"":""en-US"",""screen_resolution"":[1440,900],""platform"":""MacIntel"",""timezone"":""Europe/Berlin""}","9","100","","","1558007070708","18","","Forchheim","[]","Forchheim","true","false","2574.0499999992317"
"","html-voicekey-response","89","551052","0.0-4.85-0.85","kacx16hx830etob","{""user_agent"":""Mozilla/5.0 (Macintosh; Intel Mac OS X 10_14_4) AppleWebKit/537.36 (KHTML, like Gecko) Chrome/74.0.3729.131 Safari/537.36"",""on_chrome"":true,""on_mobile"":false,""language"":""en-US"",""screen_resolution"":[1440,900],""platform"":""MacIntel"",""timezone"":""Europe/Berlin""}","9","4704.149999999418","","","1558007073885","11","","Alfeld","[]","Alfeld","true","false","5296.809999999823"
"","html-voicekey-response","90","557491","0.0-4.86-0.86","kacx16hx830etob","{""user_agent"":""Mozilla/5.0 (Macintosh; Intel Mac OS X 10_14_4) AppleWebKit/537.36 (KHTML, like Gecko) Chrome/74.0.3729.131 Safari/537.36"",""on_chrome"":true,""on_mobile"":false,""language"":""en-US"",""screen_resolution"":[1440,900],""platform"":""MacIntel"",""timezone"":""Europe/Berlin""}","9","5192.519999998598","","","1558007079788","21","","Konstanz","[]","Konstanz","true","false","5834.965000000084"
"","html-voicekey-response","91","565907","0.0-4.87-0.87","kacx16hx830etob","{""user_agent"":""Mozilla/5.0 (Macintosh; Intel Mac OS X 10_14_4) AppleWebKit/537.36 (KHTML, like Gecko) Chrome/74.0.3729.131 Safari/537.36"",""on_chrome"":true,""on_mobile"":false,""language"":""en-US"",""screen_resolution"":[1440,900],""platform"":""MacIntel"",""timezone"":""Europe/Berlin""}","9","Infinity","","","1558007086226","10","","Heidelberg","[]","Heidelberg","true","false","7812.319999999134"
"","html-voicekey-response","92","574504","0.0-4.88-0.88","kacx16hx830etob","{""user_agent"":""Mozilla/5.0 (Macintosh; Intel Mac OS X 10_14_4) AppleWebKit/537.36 (KHTML, like Gecko) Chrome/74.0.3729.131 Safari/537.36"",""on_chrome"":true,""on_mobile"":false,""language"":""en-US"",""screen_resolution"":[1440,900],""platform"":""MacIntel"",""timezone"":""Europe/Berlin""}","9","3701.2800000010525","","","1558007094642","22","","","[]","Bamberg","false","false","4593.185000001569"
"","html-voicekey-response","93","577520","0.0-4.89-0.89","kacx16hx830etob","{""user_agent"":""Mozilla/5.0 (Macintosh; Intel Mac OS X 10_14_4) AppleWebKit/537.36 (KHTML, like Gecko) Chrome/74.0.3729.131 Safari/537.36"",""on_chrome"":true,""on_mobile"":false,""language"":""en-US"",""screen_resolution"":[1440,900],""platform"":""MacIntel"",""timezone"":""Europe/Berlin""}","9","238.25000000009314","","","1558007103239","23","","Stuttgart","[]","Stuttgart","true","false","2413.215000000433"
"","html-voicekey-response","94","587348","0.0-4.90-0.90","kacx16hx830etob","{""user_agent"":""Mozilla/5.0 (Macintosh; Intel Mac OS X 10_14_4) AppleWebKit/537.36 (KHTML, like Gecko) Chrome/74.0.3729.131 Safari/537.36"",""on_chrome"":true,""on_mobile"":false,""language"":""en-US"",""screen_resolution"":[1440,900],""platform"":""MacIntel"",""timezone"":""Europe/Berlin""}","9","8564.38499999952","","","1558007106256","21","","Konstanz","[]","Konstanz","true","false","9224.01999999967"
"","html-voicekey-response","95","592504","0.0-4.91-0.91","kacx16hx830etob","{""user_agent"":""Mozilla/5.0 (Macintosh; Intel Mac OS X 10_14_4) AppleWebKit/537.36 (KHTML, like Gecko) Chrome/74.0.3729.131 Safari/537.36"",""on_chrome"":true,""on_mobile"":false,""language"":""en-US"",""screen_resolution"":[1440,900],""platform"":""MacIntel"",""timezone"":""Europe/Berlin""}","9","3986.899999999651","","","1558007116084","22","","Bamberg","[]","Bamberg","true","false","4552.530000000843"
"","html-voicekey-response","96","594987","0.0-4.92-0.92","kacx16hx830etob","{""user_agent"":""Mozilla/5.0 (Macintosh; Intel Mac OS X 10_14_4) AppleWebKit/537.36 (KHTML, like Gecko) Chrome/74.0.3729.131 Safari/537.36"",""on_chrome"":true,""on_mobile"":false,""language"":""en-US"",""screen_resolution"":[1440,900],""platform"":""MacIntel"",""timezone"":""Europe/Berlin""}","9","1286.445000001439","","","1558007121240","6","","Dresden","[]","Dresden","true","false","1879.2250000006752"
"","html-voicekey-response","97","598137","0.0-4.93-0.93","kacx16hx830etob","{""user_agent"":""Mozilla/5.0 (Macintosh; Intel Mac OS X 10_14_4) AppleWebKit/537.36 (KHTML, like Gecko) Chrome/74.0.3729.131 Safari/537.36"",""on_chrome"":true,""on_mobile"":false,""language"":""en-US"",""screen_resolution"":[1440,900],""platform"":""MacIntel"",""timezone"":""Europe/Berlin""}","9","1753.5349999997766","","","1558007123722","18","","Forchheim","[]","Forchheim","true","false","2546.8249999994878"
"","html-voicekey-response","98","603796","0.0-4.94-0.94","kacx16hx830etob","{""user_agent"":""Mozilla/5.0 (Macintosh; Intel Mac OS X 10_14_4) AppleWebKit/537.36 (KHTML, like Gecko) Chrome/74.0.3729.131 Safari/537.36"",""on_chrome"":true,""on_mobile"":false,""language"":""en-US"",""screen_resolution"":[1440,900],""platform"":""MacIntel"",""timezone"":""Europe/Berlin""}","9","4296.1549999997715","","","1558007126873","11","","Alfeld","[]","Alfeld","true","false","5055.510000000126"
"","html-voicekey-response","99","609547","0.0-4.95-0.95","kacx16hx830etob","{""user_agent"":""Mozilla/5.0 (Macintosh; Intel Mac OS X 10_14_4) AppleWebKit/537.36 (KHTML, like Gecko) Chrome/74.0.3729.131 Safari/537.36"",""on_chrome"":true,""on_mobile"":false,""language"":""en-US"",""screen_resolution"":[1440,900],""platform"":""MacIntel"",""timezone"":""Europe/Berlin""}","9","4353.455000000167","","","1558007132532","21","","Konstanz","[]","Konstanz","true","false","5145.754999999539"
"","html-voicekey-response","100","611987","0.0-4.96-0.96","kacx16hx830etob","{""user_agent"":""Mozilla/5.0 (Macintosh; Intel Mac OS X 10_14_4) AppleWebKit/537.36 (KHTML, like Gecko) Chrome/74.0.3729.131 Safari/537.36"",""on_chrome"":true,""on_mobile"":false,""language"":""en-US"",""screen_resolution"":[1440,900],""platform"":""MacIntel"",""timezone"":""Europe/Berlin""}","9","1211.2450000003214","","","1558007138282","7","","Erfurt","[]","Erfurt","true","false","1836.9700000003213"
"","html-voicekey-response","101","614869","0.0-4.97-0.97","kacx16hx830etob","{""user_agent"":""Mozilla/5.0 (Macintosh; Intel Mac OS X 10_14_4) AppleWebKit/537.36 (KHTML, like Gecko) Chrome/74.0.3729.131 Safari/537.36"",""on_chrome"":true,""on_mobile"":false,""language"":""en-US"",""screen_resolution"":[1440,900],""platform"":""MacIntel"",""timezone"":""Europe/Berlin""}","9","1503.2000000008616","","","1558007140723","8","","Gotha","[]","Gotha","true","false","2277.7500000010477"
"","html-voicekey-response","102","628853","0.0-4.98-0.98","kacx16hx830etob","{""user_agent"":""Mozilla/5.0 (Macintosh; Intel Mac OS X 10_14_4) AppleWebKit/537.36 (KHTML, like Gecko) Chrome/74.0.3729.131 Safari/537.36"",""on_chrome"":true,""on_mobile"":false,""language"":""en-US"",""screen_resolution"":[1440,900],""platform"":""MacIntel"",""timezone"":""Europe/Berlin""}","9","12820.260000000218","","","1558007143606","22","","Bamberg","[]","Bamberg","true","false","13378.859999998822"
"","html-voicekey-response","103","631353","0.0-4.99-0.99","kacx16hx830etob","{""user_agent"":""Mozilla/5.0 (Macintosh; Intel Mac OS X 10_14_4) AppleWebKit/537.36 (KHTML, like Gecko) Chrome/74.0.3729.131 Safari/537.36"",""on_chrome"":true,""on_mobile"":false,""language"":""en-US"",""screen_resolution"":[1440,900],""platform"":""MacIntel"",""timezone"":""Europe/Berlin""}","9","1385.8500000004192","","","1558007157590","9","","München","[]","München","true","false","1895.2100000005448"
"","html-voicekey-response","104","653335","0.0-4.100-0.100","kacx16hx830etob","{""user_agent"":""Mozilla/5.0 (Macintosh; Intel Mac OS X 10_14_4) AppleWebKit/537.36 (KHTML, like Gecko) Chrome/74.0.3729.131 Safari/537.36"",""on_chrome"":true,""on_mobile"":false,""language"":""en-US"",""screen_resolution"":[1440,900],""platform"":""MacIntel"",""timezone"":""Europe/Berlin""}","9","16436.525000000816","","","1558007160089","3","","","[]","Ingolstadt","false","false","17978.289999999106"
"","html-voicekey-response","105","657501","0.0-4.101-0.101","kacx16hx830etob","{""user_agent"":""Mozilla/5.0 (Macintosh; Intel Mac OS X 10_14_4) AppleWebKit/537.36 (KHTML, like Gecko) Chrome/74.0.3729.131 Safari/537.36"",""on_chrome"":true,""on_mobile"":false,""language"":""en-US"",""screen_resolution"":[1440,900],""platform"":""MacIntel"",""timezone"":""Europe/Berlin""}","9","169.11499999857043","","","1558007182073","21","","Konstanz","[]","Konstanz","true","false","3560.8649999994086"
"","html-voicekey-response","106","662236","0.0-4.102-0.102","kacx16hx830etob","{""user_agent"":""Mozilla/5.0 (Macintosh; Intel Mac OS X 10_14_4) AppleWebKit/537.36 (KHTML, like Gecko) Chrome/74.0.3729.131 Safari/537.36"",""on_chrome"":true,""on_mobile"":false,""language"":""en-US"",""screen_resolution"":[1440,900],""platform"":""MacIntel"",""timezone"":""Europe/Berlin""}","9","3587.8300000001677","","","1558007186237","11","","Alfeld","[]","Alfeld","true","false","4128.735000000219"
"","html-voicekey-response","107","665959","0.0-4.103-0.103","kacx16hx830etob","{""user_agent"":""Mozilla/5.0 (Macintosh; Intel Mac OS X 10_14_4) AppleWebKit/537.36 (KHTML, like Gecko) Chrome/74.0.3729.131 Safari/537.36"",""on_chrome"":true,""on_mobile"":false,""language"":""en-US"",""screen_resolution"":[1440,900],""platform"":""MacIntel"",""timezone"":""Europe/Berlin""}","9","2562.045000000368","","","1558007190972","5","","Aachen","[]","Aachen","true","false","3119.4500000001863"
"","html-voicekey-response","108","672144","0.0-4.104-0.104","kacx16hx830etob","{""user_agent"":""Mozilla/5.0 (Macintosh; Intel Mac OS X 10_14_4) AppleWebKit/537.36 (KHTML, like Gecko) Chrome/74.0.3729.131 Safari/537.36"",""on_chrome"":true,""on_mobile"":false,""language"":""en-US"",""screen_resolution"":[1440,900],""platform"":""MacIntel"",""timezone"":""Europe/Berlin""}","9","4936.130000001727","","","1558007194696","22","","Bamberg","[]","Bamberg","true","false","5578.940000001341"
"","html-voicekey-response","109","674685","0.0-4.105-0.105","kacx16hx830etob","{""user_agent"":""Mozilla/5.0 (Macintosh; Intel Mac OS X 10_14_4) AppleWebKit/537.36 (KHTML, like Gecko) Chrome/74.0.3729.131 Safari/537.36"",""on_chrome"":true,""on_mobile"":false,""language"":""en-US"",""screen_resolution"":[1440,900],""platform"":""MacIntel"",""timezone"":""Europe/Berlin""}","9","1328.9650000004099","","","1558007200880","4","","Würzburg","[]","Würzburg","true","false","1937.0350000008475"
"","html-voicekey-response","110","677985","0.0-4.106-0.106","kacx16hx830etob","{""user_agent"":""Mozilla/5.0 (Macintosh; Intel Mac OS X 10_14_4) AppleWebKit/537.36 (KHTML, like Gecko) Chrome/74.0.3729.131 Safari/537.36"",""on_chrome"":true,""on_mobile"":false,""language"":""en-US"",""screen_resolution"":[1440,900],""platform"":""MacIntel"",""timezone"":""Europe/Berlin""}","9","1921.0549999987475","","","1558007203421","10","","Heidelberg","[]","Heidelberg","true","false","2695.8899999990826"
"","html-voicekey-response","111","696669","0.0-4.107-0.107","kacx16hx830etob","{""user_agent"":""Mozilla/5.0 (Macintosh; Intel Mac OS X 10_14_4) AppleWebKit/537.36 (KHTML, like Gecko) Chrome/74.0.3729.131 Safari/537.36"",""on_chrome"":true,""on_mobile"":false,""language"":""en-US"",""screen_resolution"":[1440,900],""platform"":""MacIntel"",""timezone"":""Europe/Berlin""}","9","12001.65999999966","","","1558007206722","22","","","[]","Bamberg","false","false","14677.689999998547"
"","html-voicekey-response","112","704131","0.0-4.108-0.108","kacx16hx830etob","{""user_agent"":""Mozilla/5.0 (Macintosh; Intel Mac OS X 10_14_4) AppleWebKit/537.36 (KHTML, like Gecko) Chrome/74.0.3729.131 Safari/537.36"",""on_chrome"":true,""on_mobile"":false,""language"":""en-US"",""screen_resolution"":[1440,900],""platform"":""MacIntel"",""timezone"":""Europe/Berlin""}","9","2730.809999998985","","","1558007225406","18","","","[]","Forchheim","false","false","3456.559999998659"
"","html-voicekey-response","113","707005","0.0-4.109-0.109","kacx16hx830etob","{""user_agent"":""Mozilla/5.0 (Macintosh; Intel Mac OS X 10_14_4) AppleWebKit/537.36 (KHTML, like Gecko) Chrome/74.0.3729.131 Safari/537.36"",""on_chrome"":true,""on_mobile"":false,""language"":""en-US"",""screen_resolution"":[1440,900],""platform"":""MacIntel"",""timezone"":""Europe/Berlin""}","9","1692.7850000009407","","","1558007232869","22","","Bamberg","[]","Bamberg","true","false","2268.4850000004517"
"","html-voicekey-response","114","711305","0.0-4.110-0.110","kacx16hx830etob","{""user_agent"":""Mozilla/5.0 (Macintosh; Intel Mac OS X 10_14_4) AppleWebKit/537.36 (KHTML, like Gecko) Chrome/74.0.3729.131 Safari/537.36"",""on_chrome"":true,""on_mobile"":false,""language"":""en-US"",""screen_resolution"":[1440,900],""platform"":""MacIntel"",""timezone"":""Europe/Berlin""}","9","486.38999999999066","","","1558007235742","21","","Konstanz","[]","Konstanz","true","false","3694.770000000135"
"","html-voicekey-response","115","713746","0.0-4.111-0.111","kacx16hx830etob","{""user_agent"":""Mozilla/5.0 (Macintosh; Intel Mac OS X 10_14_4) AppleWebKit/537.36 (KHTML, like Gecko) Chrome/74.0.3729.131 Safari/537.36"",""on_chrome"":true,""on_mobile"":false,""language"":""en-US"",""screen_resolution"":[1440,900],""platform"":""MacIntel"",""timezone"":""Europe/Berlin""}","9","1360.9150000009454","","","1558007240043","13","","Chemnitz","[]","Chemnitz","true","false","1834.7549999998882"
"","html-voicekey-response","116","724280","0.0-4.112-0.112","kacx16hx830etob","{""user_agent"":""Mozilla/5.0 (Macintosh; Intel Mac OS X 10_14_4) AppleWebKit/537.36 (KHTML, like Gecko) Chrome/74.0.3729.131 Safari/537.36"",""on_chrome"":true,""on_mobile"":false,""language"":""en-US"",""screen_resolution"":[1440,900],""platform"":""MacIntel"",""timezone"":""Europe/Berlin""}","9","9252.505000000214","","","1558007242484","3","","Ingolstadt","[]","Ingolstadt","true","false","9927.780000000028"
"","html-voicekey-response","117","727941","0.0-4.113-0.113","kacx16hx830etob","{""user_agent"":""Mozilla/5.0 (Macintosh; Intel Mac OS X 10_14_4) AppleWebKit/537.36 (KHTML, like Gecko) Chrome/74.0.3729.131 Safari/537.36"",""on_chrome"":true,""on_mobile"":false,""language"":""en-US"",""screen_resolution"":[1440,900],""platform"":""MacIntel"",""timezone"":""Europe/Berlin""}","9","2480.704999999702","","","1558007253018","22","","Bamberg","[]","Bamberg","true","false","3055.655000000028"
"","html-voicekey-response","118","733209","0.0-4.114-0.114","kacx16hx830etob","{""user_agent"":""Mozilla/5.0 (Macintosh; Intel Mac OS X 10_14_4) AppleWebKit/537.36 (KHTML, like Gecko) Chrome/74.0.3729.131 Safari/537.36"",""on_chrome"":true,""on_mobile"":false,""language"":""en-US"",""screen_resolution"":[1440,900],""platform"":""MacIntel"",""timezone"":""Europe/Berlin""}","9","3936.4000000003493","","","1558007256678","11","","Alfeld","[]","Alfeld","true","false","4662.495000000577"
"","html-voicekey-response","119","736065","0.0-4.115-0.115","kacx16hx830etob","{""user_agent"":""Mozilla/5.0 (Macintosh; Intel Mac OS X 10_14_4) AppleWebKit/537.36 (KHTML, like Gecko) Chrome/74.0.3729.131 Safari/537.36"",""on_chrome"":true,""on_mobile"":false,""language"":""en-US"",""screen_resolution"":[1440,900],""platform"":""MacIntel"",""timezone"":""Europe/Berlin""}","9","1701.8750000005589","","","1558007261946","14","","Potsdam","[]","Potsdam","true","false","2251.2499999993015"
"","html-voicekey-response","120","739949","0.0-4.116-0.116","kacx16hx830etob","{""user_agent"":""Mozilla/5.0 (Macintosh; Intel Mac OS X 10_14_4) AppleWebKit/537.36 (KHTML, like Gecko) Chrome/74.0.3729.131 Safari/537.36"",""on_chrome"":true,""on_mobile"":false,""language"":""en-US"",""screen_resolution"":[1440,900],""platform"":""MacIntel"",""timezone"":""Europe/Berlin""}","9","1968.3550000006567","","","1558007264803","15","","Nürnberg","[]","Nürnberg","true","false","3278.5149999998976"
"","html-voicekey-response","121","742681","0.0-4.117-0.117","kacx16hx830etob","{""user_agent"":""Mozilla/5.0 (Macintosh; Intel Mac OS X 10_14_4) AppleWebKit/537.36 (KHTML, like Gecko) Chrome/74.0.3729.131 Safari/537.36"",""on_chrome"":true,""on_mobile"":false,""language"":""en-US"",""screen_resolution"":[1440,900],""platform"":""MacIntel"",""timezone"":""Europe/Berlin""}","9","1385.1700000011829","","","1558007268687","16","","Schwangau","[]","Schwangau","true","false","2126.4850000006845"
"","html-voicekey-response","122","748383","0.0-4.118-0.118","kacx16hx830etob","{""user_agent"":""Mozilla/5.0 (Macintosh; Intel Mac OS X 10_14_4) AppleWebKit/537.36 (KHTML, like Gecko) Chrome/74.0.3729.131 Safari/537.36"",""on_chrome"":true,""on_mobile"":false,""language"":""en-US"",""screen_resolution"":[1440,900],""platform"":""MacIntel"",""timezone"":""Europe/Berlin""}","9","4069.634999999637","","","1558007271418","22","","Bamberg","[]","Bamberg","true","false","5095.819999998668"
"","html-voicekey-response","123","751393","0.0-4.119-0.119","kacx16hx830etob","{""user_agent"":""Mozilla/5.0 (Macintosh; Intel Mac OS X 10_14_4) AppleWebKit/537.36 (KHTML, like Gecko) Chrome/74.0.3729.131 Safari/537.36"",""on_chrome"":true,""on_mobile"":false,""language"":""en-US"",""screen_resolution"":[1440,900],""platform"":""MacIntel"",""timezone"":""Europe/Berlin""}","9","1678.820000000857","","","1558007277121","12","","Dessau","[]","Dessau","true","false","2404.4000000011874"
"","html-voicekey-response","124","754244","0.0-4.120-0.120","kacx16hx830etob","{""user_agent"":""Mozilla/5.0 (Macintosh; Intel Mac OS X 10_14_4) AppleWebKit/537.36 (KHTML, like Gecko) Chrome/74.0.3729.131 Safari/537.36"",""on_chrome"":true,""on_mobile"":false,""language"":""en-US"",""screen_resolution"":[1440,900],""platform"":""MacIntel"",""timezone"":""Europe/Berlin""}","9","1652.1050000008895","","","1558007280131","11","","Alfeld","[]","Alfeld","true","false","2245.3050000004005"
"","html-voicekey-response","125","756593","0.0-4.121-0.121","kacx16hx830etob","{""user_agent"":""Mozilla/5.0 (Macintosh; Intel Mac OS X 10_14_4) AppleWebKit/537.36 (KHTML, like Gecko) Chrome/74.0.3729.131 Safari/537.36"",""on_chrome"":true,""on_mobile"":false,""language"":""en-US"",""screen_resolution"":[1440,900],""platform"":""MacIntel"",""timezone"":""Europe/Berlin""}","9","1151.915000000247","","","1558007282981","17","","Leipzig","[]","Leipzig","true","false","1743.9599999998463"
"","html-voicekey-response","126","759493","0.0-4.122-0.122","kacx16hx830etob","{""user_agent"":""Mozilla/5.0 (Macintosh; Intel Mac OS X 10_14_4) AppleWebKit/537.36 (KHTML, like Gecko) Chrome/74.0.3729.131 Safari/537.36"",""on_chrome"":true,""on_mobile"":false,""language"":""en-US"",""screen_resolution"":[1440,900],""platform"":""MacIntel"",""timezone"":""Europe/Berlin""}","9","1385.7950000000187","","","1558007285331","19","","Frankfurt","[]","Frankfurt","true","false","2294.5749999999534"
"","html-voicekey-response","127","763552","0.0-4.123-0.123","kacx16hx830etob","{""user_agent"":""Mozilla/5.0 (Macintosh; Intel Mac OS X 10_14_4) AppleWebKit/537.36 (KHTML, like Gecko) Chrome/74.0.3729.131 Safari/537.36"",""on_chrome"":true,""on_mobile"":false,""language"":""en-US"",""screen_resolution"":[1440,900],""platform"":""MacIntel"",""timezone"":""Europe/Berlin""}","9","2310.3700000009035","","","1558007288231","21","","Konstanz","[]","Konstanz","true","false","3452.6750000005122"
"","html-voicekey-response","128","766850","0.0-4.124-0.124","kacx16hx830etob","{""user_agent"":""Mozilla/5.0 (Macintosh; Intel Mac OS X 10_14_4) AppleWebKit/537.36 (KHTML, like Gecko) Chrome/74.0.3729.131 Safari/537.36"",""on_chrome"":true,""on_mobile"":false,""language"":""en-US"",""screen_resolution"":[1440,900],""platform"":""MacIntel"",""timezone"":""Europe/Berlin""}","9","2150.7499999988127","","","1558007292289","22","","Bamberg","[]","Bamberg","true","false","2693.4199999996927"
"","html-voicekey-response","129","769320","0.0-4.125-0.125","kacx16hx830etob","{""user_agent"":""Mozilla/5.0 (Macintosh; Intel Mac OS X 10_14_4) AppleWebKit/537.36 (KHTML, like Gecko) Chrome/74.0.3729.131 Safari/537.36"",""on_chrome"":true,""on_mobile"":false,""language"":""en-US"",""screen_resolution"":[1440,900],""platform"":""MacIntel"",""timezone"":""Europe/Berlin""}","9","1302.9700000004145","","","1558007295589","20","","Hamburg ","[]","Hamburg ","true","false","1860.6949999993667"
"","html-voicekey-response","130","771424","0.0-4.126-0.126","kacx16hx830etob","{""user_agent"":""Mozilla/5.0 (Macintosh; Intel Mac OS X 10_14_4) AppleWebKit/537.36 (KHTML, like Gecko) Chrome/74.0.3729.131 Safari/537.36"",""on_chrome"":true,""on_mobile"":false,""language"":""en-US"",""screen_resolution"":[1440,900],""platform"":""MacIntel"",""timezone"":""Europe/Berlin""}","9","1039.875000000326","","","1558007298057","24","","Köln","[]","Köln","true","true","1498.3849999989616"
"","html-voicekey-response","131","774141","0.0-4.127-0.127","kacx16hx830etob","{""user_agent"":""Mozilla/5.0 (Macintosh; Intel Mac OS X 10_14_4) AppleWebKit/537.36 (KHTML, like Gecko) Chrome/74.0.3729.131 Safari/537.36"",""on_chrome"":true,""on_mobile"":false,""language"":""en-US"",""screen_resolution"":[1440,900],""platform"":""MacIntel"",""timezone"":""Europe/Berlin""}","9","1284.1800000003773","","","1558007300163","25","","Osnabrück","[]","Osnabrück","true","true","2109.9400000002934"
"","html-voicekey-response","132","776541","0.0-4.128-0.128","kacx16hx830etob","{""user_agent"":""Mozilla/5.0 (Macintosh; Intel Mac OS X 10_14_4) AppleWebKit/537.36 (KHTML, like Gecko) Chrome/74.0.3729.131 Safari/537.36"",""on_chrome"":true,""on_mobile"":false,""language"":""en-US"",""screen_resolution"":[1440,900],""platform"":""MacIntel"",""timezone"":""Europe/Berlin""}","9","1267.659999999311","","","1558007302879","24","","Köln","[]","Köln","true","false","1793.3400000000838"
"","html-voicekey-response","133","778807","0.0-4.129-0.129","kacx16hx830etob","{""user_agent"":""Mozilla/5.0 (Macintosh; Intel Mac OS X 10_14_4) AppleWebKit/537.36 (KHTML, like Gecko) Chrome/74.0.3729.131 Safari/537.36"",""on_chrome"":true,""on_mobile"":false,""language"":""en-US"",""screen_resolution"":[1440,900],""platform"":""MacIntel"",""timezone"":""Europe/Berlin""}","9","1118.2449999995065","","","1558007305279","25","","Osnabrück","[]","Osnabrück","true","false","1659.6849999987753"
"","html-voicekey-response","134","783848","0.0-4.130-0.130","kacx16hx830etob","{""user_agent"":""Mozilla/5.0 (Macintosh; Intel Mac OS X 10_14_4) AppleWebKit/537.36 (KHTML, like Gecko) Chrome/74.0.3729.131 Safari/537.36"",""on_chrome"":true,""on_mobile"":false,""language"":""en-US"",""screen_resolution"":[1440,900],""platform"":""MacIntel"",""timezone"":""Europe/Berlin""}","9","Infinity","","","1558007307544","18","","Forchheim","[]","Forchheim","true","false","4435.499999999534"
"","html-voicekey-response","135","787165","0.0-4.131-0.131","kacx16hx830etob","{""user_agent"":""Mozilla/5.0 (Macintosh; Intel Mac OS X 10_14_4) AppleWebKit/537.36 (KHTML, like Gecko) Chrome/74.0.3729.131 Safari/537.36"",""on_chrome"":true,""on_mobile"":false,""language"":""en-US"",""screen_resolution"":[1440,900],""platform"":""MacIntel"",""timezone"":""Europe/Berlin""}","9","1885.0500000006055","","","1558007312586","26","","Freiburg","[]","Freiburg","true","true","2710.3200000001816"
"","html-voicekey-response","136","790183","0.0-4.132-0.132","kacx16hx830etob","{""user_agent"":""Mozilla/5.0 (Macintosh; Intel Mac OS X 10_14_4) AppleWebKit/537.36 (KHTML, like Gecko) Chrome/74.0.3729.131 Safari/537.36"",""on_chrome"":true,""on_mobile"":false,""language"":""en-US"",""screen_resolution"":[1440,900],""platform"":""MacIntel"",""timezone"":""Europe/Berlin""}","9","1435.1299999997486","","","1558007315903","27","","Tübingen","[]","Tübingen","true","true","2411.2800000002608"
"","html-voicekey-response","137","792273","0.0-4.133-0.133","kacx16hx830etob","{""user_agent"":""Mozilla/5.0 (Macintosh; Intel Mac OS X 10_14_4) AppleWebKit/537.36 (KHTML, like Gecko) Chrome/74.0.3729.131 Safari/537.36"",""on_chrome"":true,""on_mobile"":false,""language"":""en-US"",""screen_resolution"":[1440,900],""platform"":""MacIntel"",""timezone"":""Europe/Berlin""}","9","908.1700000004843","","","1558007318920","26","","Freiburg","[]","Freiburg","true","false","1484.8400000010151"
"","html-voicekey-response","138","794739","0.0-4.134-0.134","kacx16hx830etob","{""user_agent"":""Mozilla/5.0 (Macintosh; Intel Mac OS X 10_14_4) AppleWebKit/537.36 (KHTML, like Gecko) Chrome/74.0.3729.131 Safari/537.36"",""on_chrome"":true,""on_mobile"":false,""language"":""en-US"",""screen_resolution"":[1440,900],""platform"":""MacIntel"",""timezone"":""Europe/Berlin""}","9","1035.1850000004983","","","1558007321011","27","","Tübingen","[]","Tübingen","true","false","1860.0750000005355"
"","html-voicekey-response","139","801723","0.0-4.135-0.135","kacx16hx830etob","{""user_agent"":""Mozilla/5.0 (Macintosh; Intel Mac OS X 10_14_4) AppleWebKit/537.36 (KHTML, like Gecko) Chrome/74.0.3729.131 Safari/537.36"",""on_chrome"":true,""on_mobile"":false,""language"":""en-US"",""screen_resolution"":[1440,900],""platform"":""MacIntel"",""timezone"":""Europe/Berlin""}","9","Infinity","","","1558007323477","22","","Bamberg","[]","Bamberg","true","false","6377.424999998766"
"","html-voicekey-response","140","808847","0.0-4.136-0.136","kacx16hx830etob","{""user_agent"":""Mozilla/5.0 (Macintosh; Intel Mac OS X 10_14_4) AppleWebKit/537.36 (KHTML, like Gecko) Chrome/74.0.3729.131 Safari/537.36"",""on_chrome"":true,""on_mobile"":false,""language"":""en-US"",""screen_resolution"":[1440,900],""platform"":""MacIntel"",""timezone"":""Europe/Berlin""}","9","Infinity","","","1558007330461","18","","Forchheim","[]","Forchheim","true","false","6517.18000000075"
"","html-voicekey-response","141","812632","0.0-4.137-0.137","kacx16hx830etob","{""user_agent"":""Mozilla/5.0 (Macintosh; Intel Mac OS X 10_14_4) AppleWebKit/537.36 (KHTML, like Gecko) Chrome/74.0.3729.131 Safari/537.36"",""on_chrome"":true,""on_mobile"":false,""language"":""en-US"",""screen_resolution"":[1440,900],""platform"":""MacIntel"",""timezone"":""Europe/Berlin""}","9","2502.384999999637","","","1558007337585","11","","Alfeld","[]","Alfeld","true","false","3177.2899999995716"
"","html-voicekey-response","142","815942","0.0-4.138-0.138","kacx16hx830etob","{""user_agent"":""Mozilla/5.0 (Macintosh; Intel Mac OS X 10_14_4) AppleWebKit/537.36 (KHTML, like Gecko) Chrome/74.0.3729.131 Safari/537.36"",""on_chrome"":true,""on_mobile"":false,""language"":""en-US"",""screen_resolution"":[1440,900],""platform"":""MacIntel"",""timezone"":""Europe/Berlin""}","9","1644.4599999993575","","","1558007341371","28","","Regensburg","[]","Regensburg","true","true","2703.449999999022"
"","html-voicekey-response","143","819459","0.0-4.139-0.139","kacx16hx830etob","{""user_agent"":""Mozilla/5.0 (Macintosh; Intel Mac OS X 10_14_4) AppleWebKit/537.36 (KHTML, like Gecko) Chrome/74.0.3729.131 Safari/537.36"",""on_chrome"":true,""on_mobile"":false,""language"":""en-US"",""screen_resolution"":[1440,900],""platform"":""MacIntel"",""timezone"":""Europe/Berlin""}","9","2351.174999999674","","","1558007344681","3","","Ingolstadt","[]","Ingolstadt","true","false","2909.6200000003446"
"","html-voicekey-response","144","822909","0.0-4.140-0.140","kacx16hx830etob","{""user_agent"":""Mozilla/5.0 (Macintosh; Intel Mac OS X 10_14_4) AppleWebKit/537.36 (KHTML, like Gecko) Chrome/74.0.3729.131 Safari/537.36"",""on_chrome"":true,""on_mobile"":false,""language"":""en-US"",""screen_resolution"":[1440,900],""platform"":""MacIntel"",""timezone"":""Europe/Berlin""}","9","1785.204999999935","","","1558007348197","28","","Regensburg","[]","Regensburg","true","false","2843.790000000852"
"","html-voicekey-response","145","825465","0.0-4.141-0.141","kacx16hx830etob","{""user_agent"":""Mozilla/5.0 (Macintosh; Intel Mac OS X 10_14_4) AppleWebKit/537.36 (KHTML, like Gecko) Chrome/74.0.3729.131 Safari/537.36"",""on_chrome"":true,""on_mobile"":false,""language"":""en-US"",""screen_resolution"":[1440,900],""platform"":""MacIntel"",""timezone"":""Europe/Berlin""}","9","1407.9250000011875","","","1558007351647","24","","Köln","[]","Köln","true","false","1949.7100000007777"
"","html-voicekey-response","146","829615","0.0-4.142-0.142","kacx16hx830etob","{""user_agent"":""Mozilla/5.0 (Macintosh; Intel Mac OS X 10_14_4) AppleWebKit/537.36 (KHTML, like Gecko) Chrome/74.0.3729.131 Safari/537.36"",""on_chrome"":true,""on_mobile"":false,""language"":""en-US"",""screen_resolution"":[1440,900],""platform"":""MacIntel"",""timezone"":""Europe/Berlin""}","9","2901.0849999993575","","","1558007354204","22","","Bamberg","[]","Bamberg","true","false","3542.484999999986"
"","html-voicekey-response","147","832482","0.0-4.143-0.143","kacx16hx830etob","{""user_agent"":""Mozilla/5.0 (Macintosh; Intel Mac OS X 10_14_4) AppleWebKit/537.36 (KHTML, like Gecko) Chrome/74.0.3729.131 Safari/537.36"",""on_chrome"":true,""on_mobile"":false,""language"":""en-US"",""screen_resolution"":[1440,900],""platform"":""MacIntel"",""timezone"":""Europe/Berlin""}","9","1735.0499999992085","","","1558007358353","25","","Osnabrück","[]","Osnabrück","true","false","2260.6400000004796"
"","html-voicekey-response","148","835273","0.0-4.144-0.144","kacx16hx830etob","{""user_agent"":""Mozilla/5.0 (Macintosh; Intel Mac OS X 10_14_4) AppleWebKit/537.36 (KHTML, like Gecko) Chrome/74.0.3729.131 Safari/537.36"",""on_chrome"":true,""on_mobile"":false,""language"":""en-US"",""screen_resolution"":[1440,900],""platform"":""MacIntel"",""timezone"":""Europe/Berlin""}","9","1601.8650000003167","","","1558007361220","22","","Bamberg","[]","Bamberg","true","false","2185.199999999837"
"","html-voicekey-response","149","843256","0.0-4.145-0.145","kacx16hx830etob","{""user_agent"":""Mozilla/5.0 (Macintosh; Intel Mac OS X 10_14_4) AppleWebKit/537.36 (KHTML, like Gecko) Chrome/74.0.3729.131 Safari/537.36"",""on_chrome"":true,""on_mobile"":false,""language"":""en-US"",""screen_resolution"":[1440,900],""platform"":""MacIntel"",""timezone"":""Europe/Berlin""}","9","6916.6999999995805","","","1558007364013","18","","Forchheim","[]","Forchheim","true","false","7375.650000000023"
"","html-voicekey-response","150","865930","0.0-4.146-0.146","kacx16hx830etob","{""user_agent"":""Mozilla/5.0 (Macintosh; Intel Mac OS X 10_14_4) AppleWebKit/537.36 (KHTML, like Gecko) Chrome/74.0.3729.131 Safari/537.36"",""on_chrome"":true,""on_mobile"":false,""language"":""en-US"",""screen_resolution"":[1440,900],""platform"":""MacIntel"",""timezone"":""Europe/Berlin""}","9","3491.6000000010013","","","1558007371996","27","","","[]","Tübingen","false","false","18665.9650000002"
